DEFAULT	DEFAULT	DEFAULT	DEFAULT	DEFAULT	DEFAULT	DEFAULT	DEFAULT	DEFAULT	DEFAULT	DEFAULT
            TIME	TIME	ANG_X	ANG_Y	ANG_Z	VEL_X	VEL_Y	VEL_Z	ACC_X	ACC_Y	ACC_Z
            FRAME_NUMBERS	ANALOG	ANALOG	ANALOG	ANALOG	ANALOG	ANALOG	ANALOG	ANALOG	ANALOG	ANALOG
            ORIGINAL	ORIGINAL	ORIGINAL	ORIGINAL	ORIGINAL	ORIGINAL	ORIGINAL	ORIGINAL	ORIGINAL	ORIGINAL	ORIGINAL
        ITEM	0	0	x	x	x	x	x	x	x	x	x
1 0,00 0 70,534 10,641 77,850 0,083 0,001 0,012 -2,059 1,673 -3,589
1 0,01 1 70,562 10,652 77,843 0,050 0,019 -0,012 -3,351 1,874 -2,428
1 0,02 2 70,578 10,673 77,820 0,029 0,037 -0,040 -2,135 1,748 -2,819
1 0,03 3 70,578 10,689 77,800 -0,001 0,029 -0,034 -2,970 -0,815 0,688
1 0,04 4 70,575 10,706 77,786 -0,004 0,029 -0,024 -0,329 0,007 0,924
1 0,05 5 70,547 10,728 77,789 -0,049 0,038 0,005 -4,432 0,953 2,958
1 0,06 6 70,531 10,734 77,793 -0,028 0,011 0,007 2,115 -2,709 0,175
1 0,07 7 70,525 10,741 77,789 -0,011 0,012 -0,007 1,709 0,134 -1,404
1 0,08 8 70,530 10,751 77,784 0,007 0,017 -0,009 1,782 0,484 -0,226
1 0,09 9 70,536 10,764 77,783 0,011 0,023 -0,001 0,331 0,552 0,836
1 0,10 10 70,532 10,770 77,764 -0,007 0,010 -0,033 -1,748 -1,331 -3,237
1 0,11 11 70,521 10,767 77,735 -0,018 -0,005 -0,051 -1,107 -1,460 -1,732
1 0,12 12 70,479 10,776 77,679 -0,074 0,016 -0,098 -5,597 2,088 -4,687
1 0,13 13 70,445 10,781 77,629 -0,059 0,008 -0,088 1,478 -0,747 0,979
1 0,14 14 70,408 10,778 77,597 -0,065 -0,005 -0,057 -0,570 -1,351 3,123
1 0,15 15 70,373 10,776 77,569 -0,060 -0,004 -0,049 0,447 0,162 0,767
1 0,16 16 70,356 10,761 77,569 -0,031 -0,026 0,001 2,910 -2,274 4,984
1 0,17 17 70,331 10,754 77,567 -0,043 -0,011 -0,004 -1,169 1,536 -0,451
1 0,18 18 70,316 10,738 77,560 -0,025 -0,029 -0,012 1,755 -1,763 -0,848
1 0,19 19 70,293 10,730 77,546 -0,040 -0,013 -0,025 -1,479 1,541 -1,340
1 0,20 20 70,254 10,711 77,494 -0,069 -0,033 -0,090 -2,928 -2,025 -6,442
1 0,21 21 70,240 10,700 77,474 -0,024 -0,020 -0,036 4,562 1,314 5,355
1 0,22 22 70,225 10,696 77,452 -0,025 -0,006 -0,039 -0,130 1,435 -0,250
1 0,23 23 70,220 10,695 77,430 -0,009 -0,003 -0,037 1,628 0,324 0,190
1 0,24 24 70,217 10,684 77,401 -0,006 -0,019 -0,051 0,300 -1,646 -1,453
1 0,25 25 70,205 10,692 77,385 -0,021 0,015 -0,029 -1,553 3,361 2,271
1 0,26 26 70,187 10,692 77,380 -0,032 -0,000 -0,007 -1,014 -1,451 2,143
1 0,27 27 70,151 10,700 77,344 -0,062 0,013 -0,064 -3,005 1,311 -5,686
1 0,28 28 70,137 10,703 77,334 -0,025 0,005 -0,016 3,680 -0,792 4,767
1 0,29 29 70,123 10,718 77,321 -0,025 0,027 -0,022 -0,037 2,199 -0,602
1 0,30 30 70,117 10,717 77,299 -0,009 -0,002 -0,039 1,593 -2,927 -1,657
1 0,31 31 70,116 10,720 77,261 -0,002 0,005 -0,067 0,737 0,685 -2,749
1 0,32 32 70,119 10,722 77,249 0,005 0,003 -0,021 0,662 -0,135 4,539
1 0,33 33 70,120 10,726 77,232 0,002 0,008 -0,029 -0,302 0,419 -0,834
1 0,34 34 70,110 10,723 77,177 -0,018 -0,006 -0,096 -1,979 -1,337 -6,660
1 0,35 35 70,088 10,717 77,129 -0,037 -0,010 -0,083 -1,903 -0,407 1,285
1 0,36 36 70,071 10,708 77,081 -0,030 -0,015 -0,084 0,749 -0,520 -0,120
1 0,37 37 70,048 10,696 77,035 -0,041 -0,022 -0,080 -1,142 -0,678 0,417
1 0,38 38 70,020 10,685 76,970 -0,049 -0,019 -0,113 -0,750 0,292 -3,248
1 0,39 39 70,006 10,679 76,899 -0,025 -0,010 -0,125 2,315 0,887 -1,220
1 0,40 40 69,987 10,683 76,839 -0,033 0,006 -0,104 -0,764 1,640 2,049
1 0,41 41 69,943 10,700 76,718 -0,076 0,030 -0,211 -4,286 2,355 -10,693
1 0,42 42 69,888 10,725 76,594 -0,096 0,043 -0,216 -1,987 1,341 -0,467
1 0,43 43 69,812 10,773 76,442 -0,134 0,085 -0,264 -3,798 4,119 -4,840
1 0,44 44 69,716 10,810 76,276 -0,166 0,063 -0,290 -3,260 -2,120 -2,599
1 0,45 45 69,604 10,838 76,080 -0,196 0,049 -0,343 -2,924 -1,450 -5,227
1 0,46 46 69,499 10,839 75,879 -0,184 0,002 -0,350 1,149 -4,720 -0,738
1 0,47 47 69,399 10,821 75,686 -0,173 -0,030 -0,336 1,060 -3,202 1,394
1 0,48 48 69,232 10,814 75,316 -0,292 -0,013 -0,646 -11,851 1,719 -31,021
1 0,49 49 69,191 10,814 75,160 -0,072 0,001 -0,272 22,001 1,457 37,405
1 0,50 50 69,192 10,805 75,042 0,001 -0,017 -0,205 7,312 -1,848 6,690
1 0,51 51 69,227 10,760 74,917 0,061 -0,078 -0,219 6,033 -6,097 -1,352
1 0,52 52 69,273 10,695 74,792 0,081 -0,112 -0,217 1,922 -3,415 0,160
1 0,53 53 69,329 10,604 74,639 0,098 -0,160 -0,268 1,688 -4,782 -5,023
1 0,54 54 69,381 10,506 74,479 0,092 -0,171 -0,279 -0,604 -1,068 -1,154
1 0,55 55 69,436 10,361 74,265 0,094 -0,253 -0,373 0,291 -8,259 -9,415
1 0,56 56 69,509 10,067 73,695 0,129 -0,514 -0,995 3,427 -26,019 -62,150
1 0,57 57 69,533 9,901 73,364 0,041 -0,289 -0,579 -8,805 22,485 41,578
1 0,58 58 69,555 9,736 72,965 0,040 -0,288 -0,696 -0,091 0,103 -11,733
1 0,59 59 69,580 9,562 72,525 0,043 -0,305 -0,768 0,331 -1,725 -7,207
1 0,60 60 69,609 9,385 72,047 0,050 -0,308 -0,834 0,702 -0,270 -6,592
1 0,61 61 69,623 9,214 71,580 0,025 -0,299 -0,815 -2,480 0,847 1,941
1 0,62 62 69,633 9,054 71,069 0,017 -0,279 -0,892 -0,786 2,021 -7,701
1 0,63 63 69,595 8,849 69,966 -0,067 -0,358 -1,924 -8,421 -7,941 -103,258
1 0,64 64 69,546 8,789 69,396 -0,085 -0,105 -0,994 -1,795 25,328 92,999
1 0,65 65 69,508 8,739 68,774 -0,067 -0,087 -1,085 1,762 1,798 -9,069
1 0,66 66 69,502 8,646 68,120 -0,010 -0,162 -1,143 5,683 -7,446 -5,758
1 0,67 67 69,543 8,524 67,479 0,071 -0,213 -1,118 8,087 -5,123 2,478
1 0,68 68 69,650 8,343 66,800 0,188 -0,316 -1,186 11,704 -10,351 -6,819
1 0,69 69 69,808 8,145 66,117 0,276 -0,346 -1,192 8,790 -2,958 -0,584
1 0,70 70 70,040 7,904 65,474 0,405 -0,420 -1,121 12,927 -7,401 7,099
1 0,71 71 70,786 7,341 64,319 1,302 -0,984 -2,016 89,673 -56,386 -89,499
1 0,72 72 71,277 7,004 63,812 0,858 -0,589 -0,885 -44,324 39,509 113,091
1 0,73 73 71,799 6,666 63,383 0,911 -0,589 -0,749 5,295 -0,005 13,574
1 0,74 74 72,327 6,367 63,037 0,920 -0,523 -0,603 0,905 6,613 14,604
1 0,75 75 72,826 6,121 62,729 0,871 -0,429 -0,537 -4,944 9,359 6,588
1 0,76 76 73,266 5,890 62,503 0,769 -0,403 -0,395 -10,227 2,586 14,199
1 0,77 77 73,643 5,669 62,353 0,658 -0,386 -0,260 -11,013 1,670 13,493
1 0,78 78 74,479 5,269 62,336 1,458 -0,697 -0,030 79,925 -31,087 23,084
1 0,79 79 74,779 5,090 62,464 0,525 -0,312 0,224 -93,309 38,530 25,322
1 0,80 80 75,042 4,918 62,633 0,459 -0,301 0,295 -6,540 1,089 7,137
1 0,81 81 75,245 4,747 62,811 0,353 -0,298 0,310 -10,580 0,313 1,489
1 0,82 82 75,409 4,565 63,016 0,286 -0,318 0,357 -6,729 -1,977 4,724
1 0,83 83 75,481 4,259 63,253 0,125 -0,535 0,414 -16,066 -21,708 5,658
1 0,84 84 75,604 3,945 63,566 0,216 -0,547 0,548 9,036 -1,243 13,412
1 0,85 85 75,929 3,296 64,407 0,566 -1,133 1,466 35,042 -58,597 91,866
1 0,86 86 76,124 2,958 64,880 0,341 -0,590 0,827 -22,525 54,351 -63,978
1 0,87 87 76,384 2,613 65,451 0,454 -0,602 0,996 11,280 -1,221 16,966
1 0,88 88 76,779 2,182 66,148 0,689 -0,753 1,217 23,549 -15,148 22,023
1 0,89 89 77,203 1,724 66,896 0,740 -0,798 1,306 5,118 -4,500 8,913
1 0,90 90 77,599 1,342 67,569 0,691 -0,667 1,174 -4,934 13,182 -13,196
1 0,91 91 77,974 1,110 68,144 0,654 -0,405 1,004 -3,754 26,202 -17,011
1 0,92 92 78,548 0,863 69,125 1,002 -0,432 1,713 34,791 -2,775 70,939
1 0,93 93 78,735 0,784 69,606 0,327 -0,137 0,840 -67,444 29,548 -87,322
1 0,94 94 78,845 0,696 70,079 0,191 -0,154 0,824 -13,589 -1,748 -1,546
1 0,95 95 78,750 0,654 70,508 -0,164 -0,074 0,749 -35,561 8,069 -7,540
1 0,96 96 78,384 1,382 69,956 -0,640 1,272 -0,962 -47,560 134,524 -171,089
1 0,97 97 78,217 2,102 68,855 -0,290 1,255 -1,922 34,976 -1,632 -95,987
1 0,98 98 77,928 0,215 67,512 -0,505 -3,292 -2,345 -21,507 -454,751 -42,300
1 0,99 99 78,159 -0,877 66,021 0,404 -1,907 -2,602 90,964 138,524 -25,752
1 1,00 100 76,814 0,131 64,332 -2,349 1,759 -2,947 -275,311 366,597 -34,484
1 1,01 101 77,720 1,111 62,867 1,582 1,711 -2,557 393,112 -4,809 39,005
1 1,02 102 77,376 0,894 62,006 -0,601 -0,379 -1,503 -218,372 -208,998 105,453
1 1,03 103 76,499 0,352 61,771 -1,531 -0,946 -0,410 -92,937 -56,679 109,276
1 1,04 104 77,306 0,431 65,281 1,410 0,137 6,126 294,043 108,315 653,572
1 1,05 105 75,980 1,138 71,393 -2,315 1,235 10,668 -372,449 109,741 454,240
1 1,06 106 76,482 1,106 73,433 0,877 -0,056 3,560 319,166 -129,102 -710,822
1 1,07 107 76,028 1,410 73,983 -0,793 0,531 0,960 -166,988 58,710 -260,005
1 1,08 108 75,274 1,465 74,426 -1,317 0,097 0,773 -52,348 -43,384 -18,684
1 1,09 109 74,859 1,644 74,416 -0,724 0,312 -0,017 59,286 21,488 -79,056
1 1,10 110 74,507 1,938 74,434 -0,613 0,513 0,032 11,034 20,100 4,898
1 1,11 111 72,665 3,104 75,143 -3,216 2,035 1,236 -260,291 152,167 120,478
1 1,12 112 71,010 3,935 76,441 -2,889 1,451 2,265 32,755 -58,362 102,896
1 1,13 113 69,601 5,200 77,786 -2,459 2,208 2,349 43,017 75,664 8,388
1 1,14 114 68,768 6,847 79,092 -1,454 2,875 2,279 100,473 66,773 -7,027
1 1,15 115 69,180 7,846 80,074 0,719 1,743 1,714 217,317 -113,208 -56,463
1 1,16 116 69,597 9,270 81,199 0,728 2,485 1,964 0,851 74,141 24,931
1 1,17 117 70,238 10,824 82,412 1,118 2,712 2,117 39,012 22,753 15,343
1 1,18 118 71,008 12,652 83,630 1,344 3,191 2,126 22,593 47,912 0,906
1 1,19 119 70,931 16,564 86,249 -0,134 6,827 4,571 -147,840 363,570 244,448
1 1,20 120 68,298 19,172 88,735 -4,595 4,553 4,338 -446,099 -227,377 -23,251
1 1,21 121 64,766 22,002 91,573 -6,165 4,939 4,953 -156,906 38,533 61,486
1 1,22 122 60,554 26,460 94,799 -7,350 7,780 5,631 -118,585 284,182 67,861
1 1,23 123 57,189 30,013 97,284 -5,873 6,202 4,336 147,724 -157,823 -129,526
1 1,24 124 54,137 33,322 99,405 -5,327 5,776 3,703 54,564 -42,655 -63,338
1 1,25 125 52,527 36,256 100,518 -2,809 5,120 1,942 251,890 -65,593 -176,125
1 1,26 126 52,722 43,894 101,674 0,340 13,331 2,018 314,859 821,187 7,646
1 1,27 127 51,488 47,273 104,541 -2,154 5,897 5,005 -249,357 -743,440 298,649
1 1,28 128 50,592 48,434 106,707 -1,565 2,026 3,779 58,835 -387,090 -122,554
1 1,29 129 50,106 49,478 108,576 -0,848 1,823 3,262 71,701 -20,357 -51,702
1 1,30 130 49,860 51,078 110,311 -0,429 2,792 3,029 41,891 96,989 -23,301
1 1,31 131 49,884 52,948 110,886 0,043 3,263 1,004 47,246 47,098 -202,482
1 1,32 132 50,736 54,246 109,763 1,486 2,266 -1,960 144,261 -99,746 -296,404
1 1,33 133 57,988 53,783 101,751 12,657 -0,808 -13,984 1117,148 -307,442 -1202,383
1 1,34 134 63,846 53,232 93,375 10,224 -0,961 -14,620 -243,282 -15,272 -63,581
1 1,35 135 68,862 53,339 86,083 8,755 0,186 -12,726 -146,904 114,746 189,347
1 1,36 136 72,994 54,010 79,847 7,211 1,172 -10,885 -154,424 98,548 184,116
1 1,37 137 75,397 53,136 75,539 4,195 -1,527 -7,519 -301,639 -269,883 336,635
1 1,38 138 75,571 52,135 72,455 0,303 -1,747 -5,382 -389,208 -21,960 213,614
1 1,39 139 74,436 52,742 70,008 -1,981 1,059 -4,271 -228,372 280,598 111,188
1 1,40 140 72,630 57,189 68,368 -3,151 7,762 -2,862 -117,019 670,230 140,815
1 1,41 141 73,071 56,502 67,848 0,769 -1,198 -0,908 391,977 -895,989 195,441
1 1,42 142 65,973 59,964 76,844 -12,388 6,042 15,700 -1315,631 724,068 1660,791
1 1,43 143 60,799 62,361 82,007 -9,030 4,183 9,011 335,808 -185,975 -668,873
1 1,44 144 56,517 66,800 85,848 -7,475 7,747 6,705 155,497 356,470 -230,657
1 1,45 145 53,459 69,960 88,742 -5,337 5,516 5,051 213,726 -223,137 -165,381
1 1,46 146 52,322 71,525 89,762 -1,983 2,731 1,780 335,429 -278,554 -327,117
1 1,47 147 52,558 71,936 89,183 0,412 0,718 -1,010 239,534 -201,211 -278,966
1 1,48 148 56,642 72,154 85,066 7,128 0,380 -7,185 671,564 -33,873 -617,530
1 1,49 149 59,324 71,417 81,844 4,680 -1,286 -5,623 -244,769 -166,525 156,235
1 1,50 150 60,592 70,876 79,859 2,214 -0,944 -3,466 -246,648 34,121 215,719
1 1,51 151 61,308 70,036 77,878 1,249 -1,467 -3,456 -96,424 -52,307 0,952
1 1,52 152 61,342 70,220 77,444 0,060 0,323 -0,758 -118,973 178,999 269,784
1 1,53 153 60,807 70,603 77,685 -0,934 0,668 0,422 -99,345 34,559 117,999
1 1,54 154 60,082 71,082 78,095 -1,266 0,835 0,715 -33,182 16,701 29,389
1 1,55 155 58,063 72,761 79,699 -3,525 2,932 2,799 -225,930 209,650 208,333
1 1,56 156 56,689 73,903 80,531 -2,397 1,993 1,452 112,832 -93,907 -134,710
1 1,57 157 54,667 75,275 81,940 -3,530 2,394 2,459 -113,378 40,193 100,769
1 1,58 158 52,873 76,500 82,750 -3,131 2,139 1,415 39,893 -25,570 -104,477
1 1,59 159 51,320 77,509 83,674 -2,710 1,761 1,613 42,158 -37,799 19,815
1 1,60 160 50,898 78,176 83,409 -0,736 1,165 -0,463 197,415 -59,627 -207,591
1 1,61 161 51,585 78,577 81,941 1,198 0,699 -2,563 193,399 -46,574 -209,948
1 1,62 162 51,791 78,456 80,465 0,359 -0,211 -2,576 -83,925 -91,019 -1,307
1 1,63 163 46,318 75,751 83,777 -9,552 -4,720 5,781 -991,064 -450,857 835,675
1 1,64 164 45,551 74,226 83,593 -1,338 -2,662 -0,321 821,339 205,761 -610,254
1 1,65 165 46,670 72,495 81,268 1,952 -3,022 -4,058 329,053 -35,954 -373,691
1 1,66 166 49,067 70,532 78,850 4,184 -3,425 -4,220 223,168 -40,294 -16,136
1 1,67 167 52,454 68,329 75,633 5,912 -3,845 -5,614 172,765 -41,980 -139,440
1 1,68 168 55,695 66,120 72,292 5,655 -3,856 -5,831 -25,663 -1,091 -21,713
1 1,69 169 60,207 63,480 67,884 7,875 -4,608 -7,695 222,002 -75,287 -186,330
1 1,70 170 71,887 55,762 59,228 20,385 -13,470 -15,106 1251,037 -886,166 -741,150
1 1,71 171 76,043 51,374 55,672 7,255 -7,658 -6,207 -1313,093 581,179 889,890
1 1,72 172 77,833 47,771 52,583 3,125 -6,290 -5,391 -412,984 136,837 81,599
1 1,73 173 79,300 44,858 51,194 2,560 -5,084 -2,425 -56,463 120,578 296,623
1 1,74 174 79,843 43,413 51,485 0,948 -2,521 0,508 -161,219 256,277 293,313
1 1,75 175 78,756 43,141 54,191 -1,897 -0,475 4,723 -284,495 204,682 421,506
1 1,76 176 77,323 43,255 57,756 -2,502 0,198 6,222 -60,530 67,260 149,917
1 1,77 177 75,778 42,824 62,004 -2,696 -0,751 7,414 -19,348 -94,930 119,117
1 1,78 178 76,615 40,018 63,392 1,460 -4,898 2,422 415,603 -414,628 -499,142
1 1,79 179 77,600 37,325 64,044 1,721 -4,700 1,138 26,051 19,791 -128,419
1 1,80 180 78,125 35,521 62,780 0,916 -3,149 -2,205 -80,469 155,109 -334,291
1 1,81 181 78,455 34,226 61,555 0,576 -2,260 -2,138 -33,979 88,838 6,713
1 1,82 182 78,285 33,511 60,722 -0,298 -1,249 -1,455 -87,422 101,105 68,336
1 1,83 183 77,659 33,177 59,992 -1,092 -0,583 -1,275 -79,403 66,618 17,990
1 1,84 184 75,399 33,650 60,417 -3,944 0,825 0,742 -285,184 140,814 201,635
1 1,85 185 74,695 34,198 60,850 -1,229 0,957 0,757 271,502 13,205 1,481
1 1,86 186 73,896 34,694 61,564 -1,394 0,866 1,247 -16,503 -9,138 49,024
1 1,87 187 73,127 35,838 61,922 -1,343 1,996 0,625 5,047 113,023 -62,228
1 1,88 188 71,850 36,434 62,381 -2,229 1,040 0,801 -88,527 -95,573 17,663
1 1,89 189 70,380 37,081 63,474 -2,566 1,129 1,908 -33,695 8,832 110,662
1 1,90 190 68,860 37,591 64,735 -2,652 0,891 2,201 -8,620 -23,736 29,283
1 1,91 191 66,896 37,663 65,983 -3,427 0,125 2,178 -77,559 -76,594 -2,232
1 1,92 192 60,443 38,041 70,620 -11,263 0,658 8,092 -783,540 53,301 591,409
1 1,93 193 55,639 38,433 72,770 -8,385 0,686 3,753 287,786 2,719 -433,961
1 1,94 194 52,062 38,758 70,781 -6,242 0,567 -3,471 214,283 -11,846 -722,394
1 1,95 195 49,794 39,514 69,960 -3,959 1,319 -1,433 228,313 75,141 203,817
1 1,96 196 49,303 38,781 70,418 -0,857 -1,279 0,799 310,192 -259,752 223,217
1 1,97 197 48,783 37,727 70,294 -0,907 -1,839 -0,216 -5,001 -56,046 -101,558
1 1,98 198 47,946 36,853 69,975 -1,462 -1,525 -0,557 -55,474 31,403 -34,076
1 1,99 199 47,611 34,439 67,671 -0,585 -4,213 -4,021 87,737 -268,806 -346,341
1 2,00 200 48,013 33,556 65,576 0,701 -1,541 -3,656 128,577 267,202 36,439
1 2,01 201 48,477 32,985 64,126 0,810 -0,996 -2,530 10,859 54,516 112,588
1 2,02 202 49,782 33,131 62,873 2,279 0,255 -2,187 146,873 125,082 34,313
1 2,03 203 51,300 33,699 61,610 2,650 0,992 -2,205 37,098 73,699 -1,817
1 2,04 204 52,735 34,138 60,688 2,504 0,766 -1,609 -14,584 -22,566 59,606
1 2,05 205 54,724 34,270 59,271 3,471 0,230 -2,473 96,772 -53,603 -86,359
1 2,06 206 57,646 33,769 56,684 5,101 -0,873 -4,515 162,936 -110,326 -204,164
1 2,07 207 60,821 33,158 53,970 5,541 -1,067 -4,738 43,983 -19,337 -22,308
1 2,08 208 63,375 32,435 53,122 4,457 -1,263 -1,478 -108,312 -19,594 325,919
1 2,09 209 63,531 33,164 54,099 0,273 1,273 1,705 -418,435 253,522 318,359
1 2,10 210 63,484 33,738 54,953 -0,082 1,003 1,489 -35,527 -27,000 -21,614
1 2,11 211 63,279 33,552 55,079 -0,358 -0,324 0,220 -27,636 -132,635 -126,874
1 2,12 212 63,268 32,883 54,970 -0,019 -1,169 -0,190 33,947 -84,477 -41,040
1 2,13 213 63,703 31,256 54,418 0,759 -2,839 -0,963 77,785 -167,057 -77,254
1 2,14 214 64,705 26,001 52,020 1,750 -9,171 -4,185 99,120 -633,228 -322,279
1 2,15 215 65,663 22,273 50,734 1,672 -6,507 -2,246 -7,824 266,465 193,977
1 2,16 216 65,662 19,688 49,222 -0,002 -4,513 -2,638 -167,393 199,421 -39,219
1 2,17 217 63,769 18,918 48,199 -3,304 -1,343 -1,786 -330,216 316,983 85,211
1 2,18 218 62,482 18,527 47,361 -2,246 -0,683 -1,462 105,830 65,945 32,405
1 2,19 219 61,276 18,054 47,469 -2,104 -0,826 0,188 14,203 -14,229 164,988
1 2,20 220 60,260 18,077 48,052 -1,774 0,041 1,017 33,016 86,642 82,852
1 2,21 221 58,018 19,268 50,321 -3,913 2,079 3,960 -213,896 203,845 294,348
1 2,22 222 56,724 19,639 51,403 -2,259 0,646 1,889 165,382 -143,286 -207,154
1 2,23 223 55,137 20,029 51,913 -2,770 0,681 0,890 -51,098 3,410 -99,818
1 2,24 224 53,262 21,282 52,417 -3,272 2,188 0,880 -50,212 150,725 -1,079
1 2,25 225 51,011 22,444 52,552 -3,929 2,028 0,236 -65,701 -15,995 -64,373
1 2,26 226 49,398 22,081 50,806 -2,815 -0,633 -3,048 111,380 -266,089 -328,416
1 2,27 227 48,127 20,459 48,076 -2,218 -2,832 -4,765 59,711 -219,877 -171,680
1 2,28 228 47,045 18,290 45,121 -1,889 -3,786 -5,156 32,938 -95,379 -39,141
1 2,29 229 44,739 12,896 38,857 -4,025 -9,413 -10,933 -213,614 -562,778 -577,637
1 2,30 230 43,412 10,355 35,985 -2,316 -4,435 -5,013 170,887 497,805 591,971
1 2,31 231 41,936 7,828 33,153 -2,575 -4,410 -4,943 -25,905 2,544 6,982
1 2,32 232 40,581 5,723 31,460 -2,366 -3,675 -2,955 20,899 73,477 198,863
1 2,33 233 39,578 5,194 31,408 -1,750 -0,923 -0,089 61,654 275,212 286,524
1 2,34 234 38,609 6,047 31,986 -1,692 1,489 1,008 5,807 241,214 109,739
1 2,35 235 37,147 8,378 33,058 -2,552 4,069 1,871 -86,071 257,969 86,267
1 2,36 236 34,976 11,899 33,937 -3,788 6,146 1,535 -123,576 207,684 -33,559
1 2,37 237 33,013 11,433 34,802 -3,427 -0,814 1,508 36,125 -695,967 -2,666
1 2,38 238 31,285 11,885 34,896 -3,016 0,789 0,165 41,024 160,284 -134,377
1 2,39 239 30,068 12,698 35,367 -2,123 1,419 0,821 89,304 62,992 65,670
1 2,40 240 29,565 12,488 35,998 -0,878 -0,366 1,102 124,583 -178,440 28,036
1 2,41 241 29,601 11,066 35,626 0,063 -2,482 -0,649 94,087 -211,666 -175,095
1 2,42 242 29,594 9,708 35,484 -0,012 -2,370 -0,248 -7,571 11,271 40,112
1 2,43 243 29,755 9,072 35,241 0,281 -1,110 -0,423 29,374 125,972 -17,526
1 2,44 244 29,646 9,237 35,319 -0,191 0,287 0,137 -47,225 139,731 56,049
1 2,45 245 29,730 9,222 36,096 0,146 -0,026 1,356 33,731 -31,388 121,872
1 2,46 246 29,844 9,655 36,577 0,199 0,756 0,839 5,240 78,276 -51,659
1 2,47 247 29,736 10,487 37,018 -0,188 1,452 0,770 -38,683 69,601 -6,936
1 2,48 248 29,552 11,435 37,458 -0,322 1,653 0,768 -13,362 20,103 -0,234
1 2,49 249 29,493 12,348 37,723 -0,102 1,593 0,462 21,955 -5,995 -30,570
1 2,50 250 29,944 13,584 37,423 0,787 2,159 -0,523 88,954 56,539 -98,488
1 2,51 251 32,349 15,881 36,487 4,197 4,009 -1,634 340,925 185,037 -111,097
1 2,52 252 33,741 16,557 35,879 2,431 1,179 -1,060 -176,612 -283,042 57,378
1 2,53 253 35,456 16,803 35,188 2,993 0,429 -1,206 56,239 -74,958 -14,619
1 2,54 254 36,016 16,688 35,338 0,977 -0,201 0,262 -201,586 -62,979 146,848
1 2,55 255 35,809 15,937 36,675 -0,361 -1,310 2,334 -133,820 -110,901 207,170
1 2,56 256 36,057 14,256 37,656 0,434 -2,935 1,712 79,478 -162,565 -62,161
1 2,57 257 36,698 12,309 38,226 1,118 -3,398 0,995 68,421 -46,293 -71,760
1 2,58 258 39,310 8,773 37,198 4,559 -6,170 -1,795 344,141 -277,194 -278,905
1 2,59 259 40,547 7,548 36,108 2,158 -2,138 -1,903 -240,127 403,183 -10,806
1 2,60 260 41,096 7,579 35,193 0,960 0,054 -1,596 -119,836 219,192 30,661
1 2,61 261 41,129 7,600 34,239 0,057 0,037 -1,666 -90,274 -1,694 -7,002
1 2,62 262 41,307 7,217 33,446 0,310 -0,667 -1,383 25,304 -70,398 28,296
1 2,63 263 41,628 6,746 32,935 0,562 -0,823 -0,892 25,160 -15,549 49,098
1 2,64 264 41,679 6,832 32,666 0,088 0,150 -0,470 -47,306 97,297 42,210
1 2,65 265 42,668 7,294 30,743 1,726 0,807 -3,356 163,760 65,683 -288,607
1 2,66 266 44,035 7,149 29,544 2,387 -0,253 -2,092 66,083 -106,020 126,387
1 2,67 267 46,514 6,527 27,447 4,326 -1,086 -3,661 193,908 -83,250 -156,879
1 2,68 268 49,753 5,820 25,863 5,653 -1,234 -2,764 132,660 -14,853 89,726
1 2,69 269 53,425 5,384 24,744 6,409 -0,761 -1,954 75,688 47,277 80,954
1 2,70 270 56,828 5,820 23,664 5,939 0,762 -1,885 -47,011 152,318 6,912
1 2,71 271 59,895 6,894 22,761 5,352 1,874 -1,576 -58,717 111,249 30,903
1 2,72 272 65,477 10,123 21,199 9,744 5,636 -2,725 439,140 376,208 -114,937
1 2,73 273 67,054 11,695 20,692 2,752 2,744 -0,886 -699,117 -289,260 183,944
1 2,74 274 67,761 12,381 20,735 1,234 1,197 0,076 -151,854 -154,668 96,144
1 2,75 275 68,039 12,561 21,178 0,485 0,314 0,774 -74,847 -88,294 69,865
1 2,76 276 67,574 12,603 21,848 -0,811 0,073 1,168 -129,665 -24,152 39,415
1 2,77 277 66,711 12,703 22,538 -1,507 0,175 1,204 -69,603 10,242 3,545
1 2,78 278 65,711 13,011 23,176 -1,745 0,538 1,114 -23,817 36,305 -8,943
1 2,79 279 64,780 13,576 23,861 -1,625 0,986 1,195 12,029 44,767 8,105
1 2,80 280 63,979 15,053 24,751 -1,398 2,578 1,554 22,724 159,259 35,857
1 2,81 281 63,585 15,711 24,805 -0,686 1,149 0,093 71,148 -142,941 -146,098
1 2,82 282 62,350 15,940 24,838 -2,157 0,400 0,059 -147,005 -74,910 -3,424
1 2,83 283 61,530 15,179 24,473 -1,430 -1,329 -0,638 72,632 -172,847 -69,694
1 2,84 284 60,443 14,217 24,542 -1,898 -1,679 0,121 -46,736 -35,021 75,917
1 2,85 285 59,201 13,033 24,815 -2,167 -2,066 0,477 -26,993 -38,719 35,567
1 2,86 286 58,013 11,640 25,320 -2,073 -2,433 0,882 9,432 -36,658 40,508
1 2,87 287 56,857 9,224 27,173 -2,018 -4,215 3,233 5,510 -178,278 235,167
1 2,88 288 56,489 8,070 27,952 -0,642 -2,014 1,361 137,569 220,101 -187,248
1 2,89 289 56,209 7,149 28,056 -0,488 -1,608 0,181 15,430 40,658 -117,991
1 2,90 290 55,761 7,001 28,221 -0,783 -0,258 0,288 -29,529 134,989 10,654
1 2,91 291 55,214 7,127 28,418 -0,953 0,219 0,344 -17,005 47,749 5,630
1 2,92 292 54,899 7,385 28,796 -0,551 0,451 0,660 40,256 23,110 31,566
1 2,93 293 54,661 7,458 28,780 -0,415 0,127 -0,027 13,584 -32,325 -68,631
1 2,94 294 54,631 7,459 28,609 -0,053 0,002 -0,299 36,248 -12,503 -27,243
1 2,95 295 54,025 7,299 27,805 -1,058 -0,279 -1,403 -100,534 -28,149 -110,409
1 2,96 296 53,415 6,470 26,899 -1,064 -1,447 -1,582 -0,646 -116,792 -17,829
1 2,97 297 53,115 5,845 26,592 -0,524 -1,091 -0,536 54,048 35,634 104,581
1 2,98 298 52,807 5,229 26,514 -0,538 -1,075 -0,136 -1,435 1,564 39,977
1 2,99 299 52,561 4,674 26,549 -0,428 -0,970 0,061 11,040 10,543 19,672
1 3,00 300 52,352 4,211 26,666 -0,366 -0,808 0,205 6,169 16,203 14,461
1 3,01 301 52,096 3,861 26,839 -0,447 -0,611 0,302 -8,061 19,687 9,652
1 3,02 302 51,857 2,980 27,528 -0,417 -1,537 1,202 2,936 -92,646 90,052
1 3,03 303 51,606 2,485 27,743 -0,438 -0,864 0,375 -2,055 67,307 -82,742
1 3,04 304 51,625 2,001 28,267 0,034 -0,845 0,915 47,216 1,950 54,038
1 3,05 305 51,698 1,504 28,746 0,127 -0,867 0,836 9,252 -2,245 -7,936
1 3,06 306 51,438 0,970 29,124 -0,454 -0,932 0,659 -58,092 -6,458 -17,672
1 3,07 307 50,799 0,343 29,364 -1,115 -1,094 0,419 -66,110 -16,240 -24,071
1 3,08 308 50,064 -0,310 29,598 -1,282 -1,141 0,409 -16,651 -4,658 -0,955
1 3,09 309 48,718 -1,043 29,909 -2,351 -1,279 0,543 -106,897 -13,861 13,434
1 3,10 310 47,727 -1,749 29,795 -1,729 -1,232 -0,200 62,212 4,720 -74,370
1 3,11 311 47,178 -2,522 29,450 -0,958 -1,349 -0,601 77,078 -11,729 -40,045
1 3,12 312 46,887 -2,221 29,473 -0,508 0,526 0,039 44,940 187,510 64,023
1 3,13 313 46,429 -1,574 29,556 -0,800 1,130 0,146 -29,145 60,387 10,653
1 3,14 314 45,783 -0,685 29,718 -1,128 1,551 0,282 -32,802 42,169 13,589
1 3,15 315 45,159 0,127 30,034 -1,088 1,418 0,552 4,011 -13,365 26,999
1 3,16 316 44,963 0,706 30,497 -0,342 1,010 0,808 74,586 -40,778 25,620
1 3,17 317 44,305 0,295 30,786 -1,149 -0,717 0,505 -80,712 -172,686 -30,339
1 3,18 318 43,388 0,013 30,917 -1,601 -0,492 0,228 -45,196 22,512 -27,616
1 3,19 319 43,140 -0,614 31,028 -0,432 -1,095 0,194 116,891 -60,337 -3,460
1 3,20 320 43,081 -1,339 31,446 -0,104 -1,264 0,729 32,789 -16,896 53,514
1 3,21 321 43,237 -1,962 32,051 0,273 -1,087 1,057 37,737 17,713 32,781
1 3,22 322 43,118 -2,167 32,212 -0,208 -0,359 0,281 -48,118 72,794 -77,575
1 3,23 323 42,974 -1,733 31,915 -0,251 0,759 -0,518 -4,269 111,794 -79,911
1 3,24 324 41,236 -0,163 31,873 -3,034 2,740 -0,073 -278,302 198,124 44,462
1 3,25 325 40,646 0,179 31,748 -1,029 0,597 -0,218 200,429 -214,283 -14,424
1 3,26 326 39,840 0,461 31,489 -1,407 0,492 -0,452 -37,779 -10,515 -23,453
1 3,27 327 39,434 0,648 30,931 -0,708 0,326 -0,974 69,902 -16,589 -52,169
1 3,28 328 39,167 0,856 30,329 -0,466 0,363 -1,051 24,263 3,647 -7,756
1 3,29 329 38,737 1,278 29,791 -0,751 0,736 -0,939 -28,529 37,377 11,262
1 3,30 330 38,107 2,099 29,370 -1,100 1,432 -0,734 -34,943 69,576 20,459
1 3,31 331 37,082 3,928 28,583 -1,789 3,192 -1,374 -68,858 176,026 -63,966
1 3,32 332 36,655 4,858 28,386 -0,745 1,624 -0,344 104,403 -156,809 102,947
1 3,33 333 36,450 5,023 28,303 -0,357 0,287 -0,144 38,759 -133,691 20,081
1 3,34 334 36,271 4,713 28,292 -0,313 -0,541 -0,021 4,451 -82,867 12,301
1 3,35 335 36,095 4,188 28,318 -0,308 -0,917 0,046 0,477 -37,543 6,680
1 3,36 336 35,915 3,640 28,362 -0,313 -0,955 0,076 -0,510 -3,876 3,027
1 3,37 337 35,783 3,134 28,428 -0,231 -0,884 0,115 8,236 7,190 3,891
1 3,38 338 35,748 2,646 28,401 -0,062 -0,851 -0,048 16,919 3,229 -16,295
1 3,39 339 35,708 1,472 28,566 -0,071 -2,050 0,288 -0,911 -119,874 33,554
1 3,40 340 36,046 0,938 28,654 0,590 -0,932 0,154 66,081 111,809 -13,433
1 3,41 341 36,255 0,299 28,827 0,365 -1,114 0,302 -22,555 -18,239 14,875
1 3,42 342 36,434 -0,520 28,970 0,312 -1,431 0,250 -5,225 -31,641 -5,243
1 3,43 343 36,494 -1,652 29,082 0,105 -1,975 0,196 -20,713 -54,433 -5,393
1 3,44 344 36,071 -2,374 29,226 -0,738 -1,260 0,251 -84,323 71,489 5,530
1 3,45 345 35,187 -2,848 29,436 -1,544 -0,826 0,365 -80,597 43,371 11,410
1 3,46 346 32,046 -3,485 30,227 -5,482 -1,113 1,381 -393,807 -28,617 101,601
1 3,47 347 30,886 -4,149 30,563 -2,024 -1,159 0,587 345,786 -4,684 -79,474
1 3,48 348 29,826 -4,759 30,636 -1,849 -1,064 0,126 17,493 9,535 -46,026
1 3,49 349 29,000 -5,286 30,578 -1,443 -0,919 -0,100 40,639 14,500 -22,641
1 3,50 350 28,546 -5,659 30,583 -0,792 -0,651 0,009 65,044 26,766 10,881
1 3,51 351 28,694 -5,958 30,375 0,259 -0,521 -0,364 105,127 12,998 -37,294
1 3,52 352 29,423 -6,283 30,039 1,273 -0,569 -0,586 101,395 -4,707 -22,162
1 3,53 353 31,523 -7,011 29,067 3,665 -1,269 -1,697 239,181 -70,083 -111,095
1 3,54 354 32,351 -7,363 28,615 1,444 -0,614 -0,788 -222,051 65,535 90,899
1 3,55 355 32,826 -8,026 27,781 0,830 -1,158 -1,457 -61,387 -54,378 -66,879
1 3,56 356 33,269 -9,177 26,583 0,772 -2,009 -2,091 -5,804 -85,104 -63,469
1 3,57 357 33,646 -10,550 24,942 0,659 -2,396 -2,864 -11,284 -38,733 -77,241
1 3,58 358 33,926 -11,782 22,983 0,488 -2,150 -3,420 -17,107 24,578 -55,627
1 3,59 359 34,090 -12,739 21,096 0,286 -1,671 -3,292 -20,195 47,937 12,774
1 3,60 360 33,786 -13,133 19,136 -0,530 -0,687 -3,420 -81,685 98,390 -12,832
1 3,61 361 33,241 -13,042 18,677 -0,952 0,159 -0,801 -42,184 84,604 261,924
1 3,62 362 32,786 -13,131 18,421 -0,793 -0,156 -0,447 15,889 -31,454 35,447
1 3,63 363 32,435 -12,899 18,292 -0,613 0,406 -0,226 18,052 56,114 22,046
1 3,64 364 32,244 -12,653 18,012 -0,333 0,428 -0,488 27,964 2,282 -26,157
1 3,65 365 32,125 -12,331 17,621 -0,208 0,562 -0,682 12,541 13,385 -19,428
1 3,66 366 32,007 -11,913 17,141 -0,205 0,729 -0,839 0,253 16,722 -15,693
1 3,67 367 31,897 -11,462 16,639 -0,192 0,787 -0,875 1,283 5,777 -3,553
1 3,68 368 31,619 -10,210 15,917 -0,485 2,186 -1,260 -29,213 139,906 -38,560
1 3,69 369 31,727 -9,839 14,289 0,188 0,648 -2,842 67,273 -153,841 -158,224
1 3,70 370 31,646 -9,284 13,490 -0,141 0,968 -1,394 -32,904 31,975 144,815
1 3,71 371 31,083 -8,810 13,260 -0,983 0,827 -0,402 -84,219 -14,032 99,270
1 3,72 372 30,217 -8,238 13,159 -1,511 0,999 -0,176 -52,804 17,156 22,573
1 3,73 373 29,538 -7,637 12,695 -1,186 1,049 -0,810 32,474 4,980 -63,420
1 3,74 374 28,938 -7,319 12,419 -1,047 0,555 -0,481 13,983 -49,367 32,929
1 3,75 375 28,235 -6,886 12,584 -1,227 0,756 0,286 -18,038 20,074 76,718
1 3,76 376 28,390 -6,977 12,177 0,271 -0,158 -0,709 149,803 -91,384 -99,568
1 3,77 377 28,248 -7,094 12,109 -0,247 -0,205 -0,118 -51,842 -4,679 59,089
1 3,78 378 28,057 -7,284 12,033 -0,334 -0,331 -0,133 -8,643 -12,583 -1,467
1 3,79 379 27,876 -7,510 11,929 -0,317 -0,394 -0,182 1,683 -6,362 -4,935
1 3,80 380 27,758 -7,560 11,769 -0,206 -0,088 -0,279 11,078 30,664 -9,656
1 3,81 381 27,757 -7,440 11,598 -0,001 0,210 -0,298 20,517 29,759 -1,900
1 3,82 382 27,812 -7,373 11,621 0,097 0,117 0,039 9,773 -9,276 33,746
1 3,83 383 27,722 -6,849 12,342 -0,158 0,913 1,260 -25,465 79,596 122,031
1 3,84 384 27,831 -6,630 12,964 0,191 0,383 1,084 34,875 -53,012 -17,532
1 3,85 385 28,019 -6,363 13,774 0,328 0,466 1,414 13,705 8,258 32,969
1 3,86 386 28,295 -6,006 14,716 0,482 0,623 1,644 15,384 15,755 22,953
1 3,87 387 28,636 -5,587 15,736 0,595 0,731 1,780 11,353 10,833 13,673
1 3,88 388 28,966 -5,212 16,578 0,575 0,656 1,469 -2,041 -7,563 -31,098
1 3,89 389 29,281 -4,892 17,150 0,551 0,557 0,999 -2,398 -9,861 -47,078
1 3,90 390 29,429 -4,898 16,880 0,257 -0,009 -0,471 -29,349 -56,606 -146,950
1 3,91 391 29,432 -4,887 17,529 0,005 0,019 1,133 -25,220 2,804 160,332
1 3,92 392 29,413 -4,906 17,722 -0,032 -0,034 0,337 -3,694 -5,348 -79,533
1 3,93 393 29,400 -5,111 17,983 -0,023 -0,357 0,455 0,884 -32,279 11,747
1 3,94 394 29,358 -5,442 18,311 -0,073 -0,578 0,573 -5,018 -22,043 11,866
1 3,95 395 29,195 -5,858 18,631 -0,285 -0,727 0,558 -21,164 -14,933 -1,543
1 3,96 396 28,990 -6,432 18,823 -0,359 -1,002 0,335 -7,411 -27,489 -22,263
1 3,97 397 28,864 -7,809 18,379 -0,219 -2,402 -0,775 13,987 -140,042 -110,996
1 3,98 398 28,490 -8,433 18,289 -0,653 -1,090 -0,158 -43,442 131,248 61,699
1 3,99 399 28,127 -8,576 18,338 -0,634 -0,250 0,086 1,980 83,997 24,356
1 4,00 400 27,700 -8,582 18,413 -0,745 -0,011 0,132 -11,091 23,877 4,574
1 4,01 401 27,464 -8,788 18,405 -0,412 -0,358 -0,014 33,243 -34,736 -14,539
1 4,02 402 27,549 -9,131 18,360 0,149 -0,598 -0,079 56,082 -24,005 -6,482
1 4,03 403 27,791 -9,562 18,287 0,421 -0,752 -0,127 27,252 -15,404 -4,869
1 4,04 404 27,866 -10,201 18,370 0,131 -1,116 0,143 -29,033 -36,326 27,064
1 4,05 405 27,274 -10,577 18,491 -1,033 -0,656 0,212 -116,366 46,012 6,897
1 4,06 406 26,653 -10,860 18,365 -1,083 -0,494 -0,220 -5,037 16,136 -43,201
1 4,07 407 26,030 -11,232 18,032 -1,087 -0,649 -0,582 -0,430 -15,517 -36,258
1 4,08 408 25,534 -11,639 17,658 -0,866 -0,710 -0,653 22,146 -6,102 -7,049
1 4,09 409 25,295 -11,985 17,393 -0,417 -0,603 -0,461 44,931 10,693 19,170
1 4,10 410 25,222 -12,328 17,219 -0,128 -0,600 -0,304 28,849 0,334 15,687
1 4,11 411 25,060 -12,577 17,154 -0,282 -0,434 -0,114 -15,385 16,644 19,001
1 4,12 412 24,565 -12,534 17,244 -0,864 0,075 0,157 -58,182 50,884 27,127
1 4,13 413 24,720 -12,331 17,141 0,269 0,355 -0,179 113,312 27,960 -33,600
1 4,14 414 25,301 -12,190 16,953 1,015 0,246 -0,329 74,540 -10,908 -14,986
1 4,15 415 26,227 -12,188 16,694 1,616 0,003 -0,452 60,112 -24,245 -12,306
1 4,16 416 27,338 -12,356 16,462 1,939 -0,293 -0,405 32,278 -29,649 4,722
1 4,17 417 28,498 -12,644 16,301 2,025 -0,502 -0,282 8,596 -20,853 12,313
1 4,18 418 29,693 -12,968 16,161 2,086 -0,567 -0,244 6,183 -6,512 3,758
1 4,19 419 32,230 -13,631 16,131 4,428 -1,156 -0,053 234,151 -58,857 19,123
1 4,20 420 33,786 -14,112 16,233 2,716 -0,840 0,179 -171,190 31,595 23,188
1 4,21 421 35,181 -14,385 16,560 2,435 -0,477 0,569 -28,059 36,225 39,018
1 4,22 422 36,488 -14,561 16,930 2,281 -0,308 0,646 -15,452 16,961 7,651
1 4,23 423 37,785 -14,772 17,260 2,263 -0,368 0,576 -1,758 -5,995 -7,026
1 4,24 424 39,084 -15,000 17,568 2,268 -0,397 0,539 0,423 -2,961 -3,670
1 4,25 425 40,357 -15,139 17,904 2,222 -0,244 0,586 -4,535 15,322 4,695
1 4,26 426 41,567 -15,151 18,220 2,111 -0,020 0,552 -11,150 22,370 -3,405
1 4,27 427 43,961 -15,447 18,690 4,179 -0,516 0,820 206,821 -49,549 26,846
1 4,28 428 45,080 -15,596 19,042 1,953 -0,260 0,614 -222,626 25,583 -20,668
1 4,29 429 46,145 -15,644 19,495 1,859 -0,085 0,791 -9,391 17,482 17,783
1 4,30 430 47,159 -15,564 19,953 1,771 0,140 0,799 -8,814 22,564 0,791
1 4,31 431 48,191 -15,527 20,352 1,801 0,064 0,696 3,041 -7,681 -10,315
1 4,32 432 49,296 -15,661 20,538 1,929 -0,234 0,325 12,770 -29,758 -37,116
1 4,33 433 50,571 -15,829 20,769 2,225 -0,293 0,402 29,613 -5,931 7,690
1 4,34 434 53,571 -16,448 21,348 5,235 -1,080 1,011 301,069 -78,663 60,947
1 4,35 435 54,976 -16,650 21,733 2,452 -0,352 0,672 -278,342 72,759 -33,987
1 4,36 436 56,313 -16,712 22,212 2,335 -0,109 0,836 -11,719 24,326 16,492
1 4,37 437 57,603 -16,572 22,737 2,251 0,245 0,915 -8,349 35,450 7,896
1 4,38 438 58,901 -16,315 23,184 2,265 0,449 0,780 1,375 20,336 -13,492
1 4,39 439 60,230 -16,063 23,523 2,320 0,440 0,593 5,462 -0,932 -18,784
1 4,40 440 61,533 -15,918 23,766 2,273 0,253 0,423 -4,661 -18,616 -16,955
1 4,41 441 64,798 -16,176 23,886 5,699 -0,452 0,210 342,578 -70,496 -21,345
1 4,42 442 65,507 -16,407 24,167 1,237 -0,403 0,491 -446,160 4,891 28,102
1 4,43 443 66,980 -16,879 24,477 2,571 -0,824 0,541 133,405 -42,158 5,035
1 4,44 444 68,422 -17,487 24,992 2,517 -1,060 0,899 -5,444 -23,611 35,827
1 4,45 445 69,651 -18,162 25,780 2,144 -1,178 1,375 -37,282 -11,804 47,601
1 4,46 446 70,424 -18,950 26,809 1,349 -1,376 1,796 -79,476 -19,756 42,075
1 4,47 447 71,053 -19,589 27,923 1,098 -1,114 1,944 -25,110 26,169 14,760
1 4,48 448 73,495 -19,564 29,710 4,263 0,044 3,120 316,440 115,815 117,613
1 4,49 449 73,315 -19,076 30,813 -0,314 0,851 1,925 -457,683 80,742 -119,494
1 4,50 450 74,025 -18,550 31,279 1,238 0,918 0,814 155,227 6,693 -111,111
1 4,51 451 74,704 -18,012 31,463 1,186 0,939 0,320 -5,218 2,120 -49,345
1 4,52 452 75,834 -17,552 31,665 1,972 0,802 0,353 78,576 -13,763 3,260
1 4,53 453 77,084 -17,279 31,991 2,181 0,477 0,568 20,950 -32,502 21,547
1 4,54 454 78,237 -17,158 32,817 2,013 0,211 1,443 -16,769 -26,546 87,432
1 4,55 455 79,288 -17,203 34,052 1,833 -0,079 2,155 -18,001 -28,983 71,208
1 4,56 456 81,416 -17,221 36,315 3,715 -0,032 3,949 188,127 4,658 179,433
1 4,57 457 82,583 -16,988 37,069 2,037 0,407 1,317 -167,794 43,925 -263,180
1 4,58 458 83,960 -16,684 37,635 2,403 0,531 0,987 36,639 12,386 -33,060
1 4,59 459 85,462 -16,331 38,048 2,621 0,616 0,721 21,818 8,469 -26,549
1 4,60 460 86,936 -15,881 38,226 2,573 0,785 0,311 -4,811 16,886 -41,013
1 4,61 461 88,338 -15,313 38,157 2,446 0,992 -0,121 -12,686 20,702 -43,173
1 4,62 462 89,536 -14,691 37,990 2,091 1,086 -0,291 -35,546 9,415 -16,990
1 4,63 463 91,218 -13,807 38,364 2,936 1,541 0,652 84,481 45,557 94,286
1 4,64 464 92,055 -13,614 39,177 1,460 0,338 1,419 -147,529 -120,308 76,700
1 4,65 465 93,110 -13,596 40,346 1,841 0,030 2,040 38,059 -30,831 62,083
1 4,66 466 94,481 -13,609 41,658 2,393 -0,022 2,290 55,165 -5,196 24,997
1 4,67 467 96,127 -13,441 42,818 2,874 0,294 2,024 48,115 31,570 -26,598
1 4,68 468 97,940 -12,966 43,436 3,164 0,829 1,078 28,988 53,527 -94,621
1 4,69 469 99,855 -12,269 43,514 3,343 1,215 0,137 17,922 38,583 -94,137
1 4,70 470 101,842 -11,528 43,283 3,467 1,294 -0,402 12,404 7,922 -53,902
1 4,71 471 105,852 -10,212 42,639 6,999 2,296 -1,125 353,241 100,215 -72,262
1 4,72 472 107,549 -9,620 42,481 2,962 1,033 -0,276 -403,715 -126,298 84,912
1 4,73 473 108,962 -9,279 42,696 2,466 0,596 0,375 -49,586 -43,735 65,139
1 4,74 474 110,266 -9,240 43,614 2,275 0,067 1,603 -19,153 -52,879 122,759
1 4,75 475 111,606 -9,077 45,012 2,338 0,285 2,440 6,359 21,796 83,736
1 4,76 476 112,605 -8,706 47,314 1,743 0,647 4,018 -59,497 36,184 157,728
1 4,77 477 113,502 -8,257 50,511 1,566 0,785 5,580 -17,781 13,783 156,235
1 4,78 478 115,047 -6,970 56,553 2,697 2,246 10,545 113,086 146,126 496,545
1 4,79 479 116,154 -6,134 58,137 1,933 1,459 2,764 -76,305 -78,681 -778,187
1 4,80 480 117,398 -5,182 58,802 2,171 1,661 1,161 23,732 20,189 -160,250
1 4,81 481 118,737 -4,256 58,771 2,336 1,615 -0,055 16,553 -4,566 -121,564
1 4,82 482 120,153 -3,379 58,252 2,471 1,530 -0,906 13,475 -8,537 -85,129
1 4,83 483 121,603 -2,638 57,356 2,532 1,293 -1,563 6,104 -23,667 -65,699
1 4,84 484 122,605 -2,380 56,299 1,748 0,450 -1,845 -78,402 -84,328 -28,197
1 4,85 485 124,003 -2,084 54,978 2,440 0,518 -2,305 69,218 6,811 -46,064
1 4,86 486 124,582 -1,862 54,984 1,010 0,386 0,010 -143,068 -13,226 231,514
1 4,87 487 125,139 -1,434 55,640 0,973 0,748 1,145 -3,691 36,178 113,528
1 4,88 488 125,701 -0,871 56,729 0,980 0,982 1,901 0,768 23,385 75,630
1 4,89 489 126,232 -0,328 57,906 0,927 0,948 2,054 -5,341 -3,397 15,249
1 4,90 490 126,790 0,137 58,887 0,974 0,812 1,712 4,742 -13,557 -34,156
1 4,91 491 127,292 0,545 59,516 0,877 0,712 1,097 -9,782 -10,015 -61,470
1 4,92 492 128,072 1,304 59,998 1,360 1,325 0,841 48,363 61,312 -25,618
1 4,93 493 128,480 1,560 59,944 0,713 0,446 -0,094 -64,669 -87,903 -93,497
1 4,94 494 128,838 1,546 59,745 0,625 -0,024 -0,348 -8,857 -47,039 -25,431
1 4,95 495 129,141 1,300 59,488 0,527 -0,429 -0,449 -9,756 -40,446 -10,133
1 4,96 496 129,371 1,034 59,347 0,403 -0,464 -0,246 -12,426 -3,544 20,338
1 4,97 497 129,478 0,782 59,433 0,186 -0,440 0,151 -21,739 2,395 39,710
1 4,98 498 129,475 0,547 59,691 -0,005 -0,409 0,451 -19,066 3,145 29,941
1 4,99 499 129,249 0,363 60,035 -0,394 -0,321 0,600 -38,912 8,739 14,985
1 5,00 500 128,370 -0,002 60,642 -1,534 -0,637 1,059 -114,031 -31,530 45,813
1 5,01 501 127,748 -0,251 60,762 -1,085 -0,435 0,209 44,923 20,132 -84,953
1 5,02 502 126,939 -0,471 60,904 -1,413 -0,384 0,248 -32,816 5,135 3,899
1 5,03 503 126,031 -0,629 61,099 -1,583 -0,275 0,341 -17,006 10,881 9,297
1 5,04 504 125,134 -0,821 61,357 -1,566 -0,335 0,449 1,774 -5,945 10,829
1 5,05 505 124,321 -1,055 61,678 -1,420 -0,409 0,561 14,546 -7,403 11,191
1 5,06 506 123,646 -1,368 61,944 -1,178 -0,546 0,465 24,221 -13,715 -9,651
1 5,07 507 122,804 -2,194 62,270 -1,469 -1,442 0,568 -29,142 -89,630 10,289
1 5,08 508 122,604 -2,572 62,275 -0,348 -0,660 0,010 112,123 78,268 -55,807
1 5,09 509 122,435 -2,831 62,284 -0,295 -0,453 0,015 5,302 20,650 0,578
1 5,10 510 122,314 -2,992 62,345 -0,211 -0,280 0,108 8,426 17,256 9,224
1 5,11 511 122,196 -3,116 62,434 -0,206 -0,217 0,154 0,484 6,323 4,650
1 5,12 512 122,063 -3,229 62,515 -0,232 -0,196 0,143 -2,604 2,126 -1,138
1 5,13 513 121,909 -3,368 62,538 -0,269 -0,243 0,040 -3,703 -4,675 -10,308
1 5,14 514 121,945 -3,711 62,517 0,062 -0,598 -0,037 33,097 -35,570 -7,660
1 5,15 515 120,931 -4,008 62,395 -1,770 -0,518 -0,212 -183,167 8,028 -17,521
1 5,16 516 120,517 -4,244 62,452 -0,722 -0,412 0,099 104,823 10,590 31,159
1 5,17 517 120,319 -4,478 62,534 -0,346 -0,409 0,142 37,529 0,284 4,264
1 5,18 518 120,232 -4,747 62,536 -0,152 -0,468 0,005 19,417 -5,902 -13,708
1 5,19 519 120,245 -4,984 62,570 0,024 -0,414 0,059 17,602 5,467 5,426
1 5,20 520 120,295 -5,186 62,679 0,087 -0,352 0,189 6,328 6,150 13,026
1 5,21 521 120,379 -5,349 62,762 0,147 -0,285 0,146 5,960 6,769 -4,389
1 5,22 522 120,536 -5,591 62,719 0,274 -0,424 -0,075 12,674 -13,918 -22,019
1 5,23 523 120,565 -5,680 62,643 0,051 -0,155 -0,134 -22,221 26,894 -5,952
1 5,24 524 120,589 -5,753 62,536 0,041 -0,127 -0,186 -1,013 2,806 -5,159
1 5,25 525 120,561 -5,834 62,448 -0,049 -0,141 -0,153 -9,012 -1,471 3,248
1 5,26 526 120,457 -5,928 62,370 -0,182 -0,164 -0,136 -13,306 -2,275 1,732
1 5,27 527 120,349 -6,036 62,304 -0,187 -0,189 -0,117 -0,541 -2,460 1,932
1 5,28 528 120,245 -6,142 62,275 -0,183 -0,184 -0,050 0,463 0,431 6,707
1 5,29 529 120,117 -6,393 62,248 -0,223 -0,439 -0,048 -4,013 -25,406 0,165
1 5,30 530 120,101 -6,526 62,223 -0,027 -0,233 -0,042 19,560 20,579 0,556
1 5,31 531 120,101 -6,672 62,120 0,000 -0,255 -0,181 2,730 -2,178 -13,857
1 5,32 532 120,111 -6,790 61,962 0,016 -0,206 -0,275 1,628 4,802 -9,413
1 5,33 533 120,125 -6,868 61,740 0,025 -0,135 -0,387 0,887 7,101 -11,185
1 5,34 534 120,143 -6,929 61,483 0,032 -0,107 -0,449 0,663 2,863 -6,173
1 5,35 535 120,148 -6,968 61,219 0,008 -0,067 -0,461 -2,332 3,951 -1,233
1 5,36 536 120,150 -7,049 60,622 0,004 -0,143 -1,043 -0,460 -7,519 -58,241
1 5,37 537 120,158 -7,109 60,296 0,013 -0,104 -0,568 0,887 3,836 47,562
1 5,38 538 120,174 -7,181 60,003 0,029 -0,126 -0,512 1,597 -2,200 5,528
1 5,39 539 120,200 -7,256 59,744 0,045 -0,130 -0,452 1,609 -0,337 6,094
1 5,40 540 120,215 -7,306 59,566 0,027 -0,088 -0,311 -1,769 4,152 14,061
1 5,41 541 120,245 -7,343 59,487 0,051 -0,064 -0,137 2,420 2,418 17,421
1 5,42 542 120,276 -7,391 59,452 0,054 -0,084 -0,062 0,246 -1,978 7,501
1 5,43 543 120,259 -7,456 59,429 -0,028 -0,114 -0,040 -8,194 -2,994 2,180
1 5,44 544 120,006 -7,611 59,340 -0,443 -0,270 -0,155 -41,480 -15,691 -11,559
1 5,45 545 119,771 -7,698 59,205 -0,410 -0,152 -0,236 3,300 11,812 -8,094
1 5,46 546 119,474 -7,769 59,040 -0,518 -0,124 -0,287 -10,796 2,798 -5,014
1 5,47 547 119,139 -7,833 58,795 -0,585 -0,111 -0,429 -6,678 1,349 -14,210
1 5,48 548 118,760 -7,887 58,527 -0,661 -0,095 -0,468 -7,610 1,584 -3,898
1 5,49 549 118,382 -7,929 58,366 -0,661 -0,073 -0,281 -0,014 2,233 18,632
1 5,50 550 118,055 -7,994 58,347 -0,570 -0,114 -0,033 9,077 -4,094 24,840
1 5,51 551 117,560 -8,192 58,686 -0,864 -0,346 0,593 -29,414 -23,195 62,546
1 5,52 552 117,348 -8,351 59,019 -0,370 -0,277 0,581 49,472 6,907 -1,130
1 5,53 553 117,021 -8,571 59,314 -0,571 -0,385 0,514 -20,156 -10,846 -6,677
1 5,54 554 116,532 -8,785 59,481 -0,852 -0,374 0,292 -28,114 1,123 -22,274
1 5,55 555 115,973 -8,996 59,460 -0,977 -0,367 -0,036 -12,445 0,672 -32,818
1 5,56 556 115,354 -9,173 59,232 -1,080 -0,309 -0,398 -10,340 5,776 -36,181
1 5,57 557 114,628 -9,274 58,861 -1,267 -0,176 -0,647 -18,687 13,298 -24,878
1 5,58 558 113,948 -9,288 58,384 -1,186 -0,025 -0,832 8,096 15,178 -18,532
1 5,59 559 112,321 -9,381 57,366 -2,841 -0,163 -1,777 -165,454 -13,860 -94,432
1 5,60 560 111,574 -9,467 56,795 -1,303 -0,150 -0,998 153,739 1,305 77,859
1 5,61 561 110,870 -9,622 56,239 -1,228 -0,271 -0,969 7,493 -12,053 2,870
1 5,62 562 110,218 -9,863 55,720 -1,138 -0,419 -0,906 9,019 -14,836 6,336
1 5,63 563 109,653 -10,204 55,301 -0,986 -0,596 -0,732 15,237 -17,673 17,449
1 5,64 564 109,176 -10,620 55,011 -0,833 -0,727 -0,506 15,318 -13,153 22,599
1 5,65 565 108,790 -11,200 54,660 -0,674 -1,012 -0,612 15,829 -28,445 -10,647
1 5,66 566 107,564 -11,822 54,938 -2,139 -1,086 0,485 -146,496 -7,394 109,664
1 5,67 567 106,858 -12,164 54,802 -1,233 -0,596 -0,238 90,590 48,920 -72,273
1 5,68 568 105,981 -12,374 54,510 -1,531 -0,366 -0,509 -29,728 23,050 -27,070
1 5,69 569 104,876 -12,527 54,112 -1,928 -0,267 -0,695 -39,763 9,878 -18,579
1 5,70 570 103,690 -12,668 53,732 -2,070 -0,246 -0,664 -14,205 2,091 3,083
1 5,71 571 102,474 -12,892 53,550 -2,122 -0,391 -0,318 -5,186 -14,443 34,612
1 5,72 572 101,285 -13,365 53,466 -2,075 -0,827 -0,146 4,753 -43,626 17,124
1 5,73 573 99,247 -14,523 54,203 -3,557 -2,020 1,286 -148,194 -119,274 143,238
1 5,74 574 98,631 -15,441 54,538 -1,076 -1,604 0,585 248,039 41,604 -70,121
1 5,75 575 98,139 -16,425 54,724 -0,859 -1,717 0,324 21,765 -11,375 -26,030
1 5,76 576 97,568 -17,287 54,577 -0,997 -1,504 -0,256 -13,801 21,293 -58,021
1 5,77 577 96,932 -17,926 54,020 -1,110 -1,115 -0,971 -11,376 38,945 -71,554
1 5,78 578 96,177 -18,250 53,176 -1,318 -0,565 -1,474 -20,727 54,995 -50,263
1 5,79 579 95,281 -18,387 52,216 -1,563 -0,239 -1,676 -24,552 32,643 -20,183
1 5,80 580 94,920 -18,528 51,516 -0,630 -0,246 -1,222 93,278 -0,756 45,387
1 5,81 581 92,684 -18,281 49,828 -3,902 0,431 -2,945 -327,218 67,672 -172,292
1 5,82 582 91,797 -18,361 49,416 -1,547 -0,139 -0,720 235,536 -56,963 222,507
1 5,83 583 90,896 -18,510 49,161 -1,573 -0,261 -0,445 -2,555 -12,199 27,483
1 5,84 584 90,017 -18,768 48,953 -1,534 -0,449 -0,363 3,865 -18,833 8,180
1 5,85 585 89,101 -19,129 48,766 -1,599 -0,631 -0,327 -6,503 -18,186 3,644
1 5,86 586 88,212 -19,539 48,578 -1,551 -0,715 -0,327 4,765 -8,334 -0,075
1 5,87 587 87,557 -20,035 48,064 -1,144 -0,867 -0,898 40,705 -15,209 -57,056
1 5,88 588 85,434 -20,251 46,881 -3,705 -0,377 -2,064 -256,087 49,009 -116,601
1 5,89 589 84,252 -20,122 46,038 -2,063 0,226 -1,471 164,244 60,266 59,271
1 5,90 590 83,120 -19,889 45,220 -1,976 0,407 -1,429 8,698 18,052 4,249
1 5,91 591 82,068 -19,664 44,450 -1,836 0,392 -1,343 13,980 -1,429 8,578
1 5,92 592 81,178 -19,575 43,862 -1,553 0,155 -1,026 28,253 -23,759 31,725
1 5,93 593 80,420 -19,601 43,486 -1,322 -0,045 -0,657 23,134 -19,987 36,839
1 5,94 594 79,689 -19,706 43,257 -1,277 -0,184 -0,398 4,528 -13,839 25,906
1 5,95 595 78,189 -20,427 42,969 -2,618 -1,257 -0,504 -134,104 -107,318 -10,567
1 5,96 596 77,366 -20,901 42,756 -1,435 -0,828 -0,372 118,278 42,917 13,237
1 5,97 597 76,300 -21,217 42,312 -1,860 -0,553 -0,775 -42,530 27,483 -40,302
1 5,98 598 75,074 -20,785 41,806 -2,140 0,755 -0,882 -27,959 130,770 -10,784
1 5,99 599 73,727 -19,608 41,336 -2,351 2,053 -0,820 -21,106 129,831 6,219
1 6,00 600 72,139 -17,937 40,951 -2,772 2,916 -0,672 -42,139 86,305 14,825
1 6,01 601 70,315 -16,254 40,625 -3,183 2,939 -0,569 -41,047 2,237 10,298
1 6,02 602 69,202 -14,852 40,334 -1,943 2,446 -0,508 123,994 -49,257 6,118
1 6,03 603 65,520 -14,313 39,956 -6,426 0,941 -0,660 -448,250 -150,491 -15,198
1 6,04 604 64,223 -14,805 39,645 -2,265 -0,858 -0,543 416,068 -179,914 11,721
1 6,05 605 63,219 -15,586 39,139 -1,752 -1,364 -0,883 51,261 -50,635 -34,043
1 6,06 606 62,563 -16,543 38,513 -1,144 -1,669 -1,092 60,813 -30,514 -20,940
1 6,07 607 62,220 -17,493 37,812 -0,599 -1,659 -1,224 54,486 1,063 -13,111
1 6,08 608 61,945 -18,225 36,969 -0,479 -1,278 -1,471 12,013 38,094 -24,747
1 6,09 609 61,942 -18,686 35,629 -0,006 -0,804 -2,340 47,327 47,389 -86,899
1 6,10 610 60,496 -18,664 33,981 -2,524 0,038 -2,876 -251,853 84,230 -53,606
1 6,11 611 59,786 -18,463 33,076 -1,238 0,350 -1,578 128,611 31,164 129,762
1 6,12 612 59,021 -18,339 32,308 -1,335 0,218 -1,341 -9,627 -13,201 23,773
1 6,13 613 58,180 -18,336 31,598 -1,468 0,005 -1,239 -13,332 -21,325 10,174
1 6,14 614 57,173 -18,414 30,893 -1,758 -0,137 -1,230 -29,009 -14,129 0,852
1 6,15 615 55,935 -18,487 30,138 -2,161 -0,126 -1,318 -40,310 1,007 -8,776
1 6,16 616 54,426 -18,237 29,279 -2,634 0,436 -1,500 -47,323 56,240 -18,142
1 6,17 617 50,784 -18,281 27,980 -6,356 -0,076 -2,266 -372,188 -51,216 -76,678
1 6,18 618 49,027 -18,060 27,562 -3,066 0,385 -0,729 329,015 46,136 153,733
1 6,19 619 47,350 -17,748 27,225 -2,927 0,544 -0,589 13,943 15,902 13,983
1 6,20 620 45,737 -17,313 26,944 -2,817 0,759 -0,489 10,979 21,441 9,998
1 6,21 621 44,203 -16,810 26,706 -2,676 0,878 -0,416 14,054 11,960 7,328
1 6,22 622 42,750 -16,321 26,347 -2,536 0,854 -0,626 13,993 -2,424 -21,031
1 6,23 623 41,366 -15,908 25,856 -2,415 0,721 -0,857 12,092 -13,292 -23,089
1 6,24 624 38,851 -15,388 24,658 -4,390 0,907 -2,092 -197,473 18,603 -123,429
1 6,25 625 37,691 -15,243 24,048 -2,023 0,253 -1,064 236,679 -65,353 102,722
1 6,26 626 36,534 -15,196 23,491 -2,021 0,083 -0,972 0,253 -17,036 9,264
1 6,27 627 35,371 -15,258 22,984 -2,030 -0,109 -0,886 -0,910 -19,186 8,566
1 6,28 628 34,189 -15,390 22,481 -2,062 -0,231 -0,877 -3,188 -12,233 0,862
1 6,29 629 33,088 -15,458 21,994 -1,922 -0,118 -0,850 14,008 11,276 2,719
1 6,30 630 32,116 -15,391 21,618 -1,697 0,117 -0,656 22,517 23,572 19,416
1 6,31 631 31,330 -15,078 21,477 -1,371 0,545 -0,246 32,506 42,790 41,046
1 6,32 632 28,909 -14,656 20,122 -4,226 0,737 -2,365 -285,426 19,174 -211,930
1 6,33 633 27,746 -14,298 19,895 -2,030 0,624 -0,396 219,596 -11,297 196,842
1 6,34 634 26,636 -13,749 20,054 -1,939 0,959 0,277 9,110 33,528 67,322
1 6,35 635 25,608 -12,960 20,512 -1,794 1,377 0,800 14,468 41,732 52,336
1 6,36 636 24,582 -12,055 21,130 -1,790 1,580 1,079 0,420 20,351 27,853
1 6,37 637 23,576 -11,273 21,749 -1,756 1,365 1,079 3,342 -21,540 0,078
1 6,38 638 23,014 -10,921 22,399 -0,981 0,614 1,135 77,533 -75,101 5,540
1 6,39 639 20,419 -9,920 23,151 -4,529 1,747 1,313 -354,792 113,366 17,846
1 6,40 640 19,229 -9,723 23,223 -2,076 0,344 0,126 245,281 -140,351 -118,753
1 6,41 641 17,848 -9,510 23,148 -2,410 0,372 -0,131 -33,418 2,769 -25,697
1 6,42 642 16,274 -9,267 22,968 -2,747 0,423 -0,314 -33,711 5,181 -18,270
1 6,43 643 14,642 -9,014 22,689 -2,849 0,441 -0,487 -10,200 1,805 -17,321
1 6,44 644 12,930 -8,717 22,399 -2,988 0,518 -0,506 -13,829 7,635 -1,890
1 6,45 645 11,432 -8,048 21,907 -2,613 1,168 -0,859 37,440 65,025 -35,320
1 6,46 646 9,880 -7,672 21,619 -2,710 0,656 -0,503 -9,640 -51,176 35,618
1 6,47 647 6,658 -7,418 21,243 -5,622 0,444 -0,656 -291,264 -21,281 -15,254
1 6,48 648 5,204 -7,250 21,206 -2,539 0,294 -0,065 308,384 -14,964 59,067
1 6,49 649 4,096 -7,233 21,325 -1,934 0,029 0,207 60,437 -26,495 27,199
1 6,50 650 3,370 -7,266 21,587 -1,266 -0,057 0,458 66,821 -8,629 25,135
1 6,51 651 2,985 -7,196 22,042 -0,672 0,122 0,794 59,369 17,946 33,573
1 6,52 652 3,112 -6,883 22,693 0,222 0,547 1,135 89,434 42,490 34,112
1 6,53 653 3,524 -6,523 23,366 0,718 0,628 1,174 49,617 8,079 3,875
1 6,54 654 4,594 -6,269 24,210 1,867 0,444 1,474 114,859 -18,389 30,025
1 6,55 655 5,210 -6,494 24,266 1,075 -0,393 0,098 -79,145 -83,720 -137,645
1 6,56 656 5,641 -7,366 24,099 0,753 -1,522 -0,292 -32,276 -112,890 -38,971
1 6,57 657 5,643 -8,840 23,677 0,003 -2,573 -0,736 -75,005 -105,076 -44,422
1 6,58 658 4,815 -10,710 23,054 -1,445 -3,263 -1,087 -144,771 -69,035 -35,126
1 6,59 659 3,579 -12,626 22,551 -2,157 -3,344 -0,878 -71,146 -8,097 20,959
1 6,60 660 1,623 -14,784 22,133 -3,414 -3,767 -0,729 -125,733 -42,221 14,839
1 6,61 661 0,085 -15,610 22,449 -2,684 -1,441 0,551 73,016 232,565 128,048
1 6,62 662 -0,535 -15,561 22,604 -1,083 0,085 0,270 160,069 152,609 -28,154
1 6,63 663 -0,782 -15,333 22,601 -0,430 0,398 -0,005 65,303 31,245 -27,450
1 6,64 664 -1,036 -15,069 22,299 -0,444 0,462 -0,528 -1,355 6,440 -52,265
1 6,65 665 -1,397 -15,007 21,676 -0,631 0,107 -1,086 -18,752 -35,516 -55,856
1 6,66 666 -1,541 -14,970 20,905 -0,251 0,065 -1,346 38,003 -4,179 -26,033
1 6,67 667 -1,454 -14,961 19,608 0,153 0,016 -2,263 40,368 -4,887 -91,605
1 6,68 668 -0,814 -14,423 18,714 1,116 0,938 -1,560 96,338 92,163 70,226
1 6,69 669 -0,388 -14,168 18,282 0,744 0,446 -0,754 -37,171 -49,169 80,602
1 6,70 670 0,234 -14,105 18,121 1,086 0,110 -0,282 34,167 -33,657 47,271
1 6,71 671 0,861 -14,121 18,181 1,095 -0,029 0,105 0,874 -13,833 38,657
1 6,72 672 1,398 -14,173 18,534 0,936 -0,091 0,615 -15,908 -6,216 51,011
1 6,73 673 1,864 -14,192 19,054 0,814 -0,032 0,909 -12,130 5,870 29,387
1 6,74 674 2,128 -14,088 19,567 0,461 0,180 0,895 -35,377 21,245 -1,417
1 6,75 675 1,622 -13,664 20,048 -0,882 0,741 0,840 -134,292 56,038 -5,504
1 6,76 676 1,702 -12,929 20,576 0,139 1,284 0,920 102,156 54,296 8,050
1 6,77 677 1,552 -12,455 20,861 -0,261 0,827 0,498 -40,055 -45,702 -42,257
1 6,78 678 1,539 -12,011 21,154 -0,024 0,776 0,512 23,772 -5,080 1,470
1 6,79 679 1,626 -11,733 21,374 0,153 0,485 0,384 17,660 -29,109 -12,884
1 6,80 680 1,920 -11,656 21,466 0,512 0,133 0,160 35,943 -35,159 -22,347
1 6,81 681 2,416 -11,828 21,329 0,866 -0,299 -0,239 35,344 -43,223 -39,931
1 6,82 682 3,508 -12,198 20,751 1,905 -0,645 -1,009 103,946 -34,631 -76,995
1 6,83 683 3,843 -12,882 20,270 0,585 -1,195 -0,839 -132,034 -54,965 17,016
1 6,84 684 3,918 -13,262 20,180 0,130 -0,662 -0,157 -45,455 53,332 68,192
1 6,85 685 3,728 -13,649 20,126 -0,331 -0,676 -0,093 -46,097 -1,436 6,357
1 6,86 686 3,476 -14,022 20,124 -0,441 -0,651 -0,004 -11,033 2,540 8,966
1 6,87 687 3,051 -14,314 20,126 -0,742 -0,510 0,003 -30,065 14,046 0,648
1 6,88 688 2,432 -14,511 20,158 -1,080 -0,343 0,055 -33,839 16,717 5,282
1 6,89 689 1,443 -14,695 20,190 -1,726 -0,321 0,056 -64,611 2,172 0,055
1 6,90 690 1,093 -14,565 19,966 -0,610 0,227 -0,390 111,601 54,787 -44,647
1 6,91 691 0,907 -14,198 19,616 -0,325 0,640 -0,610 28,535 41,360 -21,985
1 6,92 692 0,906 -13,934 19,239 -0,002 0,462 -0,658 32,254 -17,835 -4,819
1 6,93 693 0,872 -13,750 18,876 -0,060 0,320 -0,634 -5,770 -14,202 2,486
1 6,94 694 0,682 -13,646 18,630 -0,330 0,182 -0,430 -27,044 -13,793 20,353
1 6,95 695 -0,115 -13,586 18,527 -1,392 0,106 -0,178 -106,156 -7,614 25,184
1 6,96 696 -4,140 -13,528 18,307 -7,025 0,101 -0,385 -563,338 -0,442 -20,713
1 6,97 697 -6,219 -13,815 18,018 -3,628 -0,502 -0,505 339,758 -60,330 -11,928
1 6,98 698 -7,287 -14,340 17,968 -1,865 -0,917 -0,087 176,258 -41,451 41,783
1 6,99 699 -7,483 -14,771 17,899 -0,341 -0,752 -0,119 152,377 16,497 -3,242
1 7,00 700 -7,008 -15,097 17,858 0,830 -0,569 -0,073 117,098 18,279 4,625
1 7,01 701 -6,207 -15,296 17,860 1,397 -0,346 0,004 56,771 22,236 7,726
1 7,02 702 -5,280 -15,331 17,877 1,618 -0,062 0,029 22,067 28,471 2,494
1 7,03 703 -4,622 -15,178 17,890 1,148 0,267 0,023 -46,965 32,859 -0,634
1 7,04 704 -4,112 -14,786 17,986 0,890 0,685 0,168 -25,839 41,808 14,478
1 7,05 705 -3,745 -14,122 17,935 0,641 1,157 -0,089 -24,893 47,252 -25,668
1 7,06 706 -3,796 -13,663 17,926 -0,089 0,801 -0,015 -72,983 -35,649 7,437
1 7,07 707 -3,895 -13,295 17,960 -0,173 0,643 0,058 -8,423 -15,780 7,305
1 7,08 708 -4,029 -13,020 17,968 -0,234 0,479 0,014 -6,118 -16,372 -4,468
1 7,09 709 -4,142 -12,827 17,957 -0,197 0,337 -0,019 3,694 -14,220 -3,245
1 7,10 710 -4,178 -12,712 17,969 -0,063 0,201 0,021 13,453 -13,576 3,971
1 7,11 711 -3,852 -12,569 18,345 0,568 0,250 0,656 63,101 4,828 63,535
1 7,12 712 -3,771 -12,718 18,928 0,142 -0,261 1,018 -42,642 -51,066 36,131
1 7,13 713 -3,608 -12,771 19,460 0,285 -0,092 0,929 14,315 16,869 -8,871
1 7,14 714 -3,610 -12,737 19,974 -0,003 0,059 0,897 -28,841 15,134 -3,189
1 7,15 715 -3,708 -12,687 20,462 -0,172 0,087 0,851 -16,813 2,797 -4,597
1 7,16 716 -3,838 -12,675 20,919 -0,226 0,021 0,798 -5,477 -6,630 -5,305
1 7,17 717 -3,917 -12,681 21,269 -0,138 -0,011 0,610 8,839 -3,180 -18,776
1 7,18 718 -4,302 -12,502 21,558 -0,673 0,313 0,505 -53,491 32,361 -10,483
1 7,19 719 -4,274 -12,311 21,670 0,049 0,334 0,195 72,211 2,161 -31,031
1 7,20 720 -3,542 -11,787 22,183 1,278 0,915 0,895 122,876 58,029 69,974
1 7,21 721 -3,255 -11,406 22,499 0,501 0,665 0,552 -77,739 -24,988 -34,285
1 7,22 722 -2,887 -11,033 22,898 0,641 0,651 0,695 14,067 -1,406 14,352
1 7,23 723 -2,461 -10,683 23,367 0,743 0,611 0,820 10,214 -3,934 12,474
1 7,24 724 -2,021 -10,394 23,819 0,768 0,505 0,788 2,453 -10,575 -3,261
1 7,25 725 -1,540 -10,248 24,130 0,840 0,253 0,543 7,160 -25,234 -24,510
1 7,26 726 -0,952 -10,507 24,340 1,026 -0,452 0,366 18,630 -70,493 -17,602
1 7,27 727 0,321 -10,913 24,474 2,223 -0,708 0,235 119,733 -25,648 -13,102
1 7,28 728 1,011 -11,213 24,493 1,203 -0,524 0,032 -102,026 18,477 -20,320
1 7,29 729 1,700 -11,440 24,507 1,204 -0,396 0,024 0,092 12,717 -0,817
1 7,30 730 2,393 -11,573 24,535 1,209 -0,231 0,049 0,480 16,536 2,521
1 7,31 731 3,164 -11,670 24,539 1,345 -0,170 0,007 13,651 6,142 -4,204
1 7,32 732 3,880 -12,039 24,209 1,251 -0,645 -0,577 -9,438 -47,510 -58,409
1 7,33 733 4,574 -12,159 24,069 1,211 -0,210 -0,245 -3,948 43,465 33,215
1 7,34 734 6,251 -12,412 24,066 2,926 -0,440 -0,004 171,425 -23,024 24,071
1 7,35 735 6,914 -12,670 23,939 1,158 -0,451 -0,223 -176,720 -1,029 -21,861
1 7,36 736 7,544 -12,972 23,809 1,099 -0,528 -0,226 -5,906 -7,700 -0,388
1 7,37 737 8,191 -13,409 23,633 1,129 -0,763 -0,308 2,963 -23,561 -8,128
1 7,38 738 8,951 -14,043 23,476 1,326 -1,106 -0,274 19,714 -34,302 3,422
1 7,39 739 9,873 -14,839 23,193 1,609 -1,389 -0,494 28,282 -28,291 -22,021
1 7,40 740 11,152 -15,617 22,967 2,232 -1,359 -0,395 62,320 3,035 9,868
1 7,41 741 12,581 -16,080 23,004 2,495 -0,807 0,065 26,335 55,200 45,978
1 7,42 742 15,458 -16,298 23,460 5,020 -0,381 0,797 252,476 42,593 73,210
1 7,43 743 16,921 -16,393 23,828 2,554 -0,166 0,642 -246,593 21,521 -15,525
1 7,44 744 18,438 -16,492 24,373 2,646 -0,174 0,952 9,191 -0,868 31,009
1 7,45 745 19,661 -16,735 24,856 2,135 -0,423 0,843 -51,142 -24,878 -10,871
1 7,46 746 20,482 -17,283 25,426 1,434 -0,956 0,995 -70,094 -53,309 15,228
1 7,47 747 20,785 -18,752 26,188 0,529 -2,565 1,329 -90,516 -160,885 33,382
1 7,48 748 21,224 -20,447 26,509 0,767 -2,959 0,560 23,790 -39,374 -76,915
1 7,49 749 21,498 -22,149 26,729 0,477 -2,969 0,385 -28,977 -1,026 -17,526
1 7,50 750 21,571 -23,386 27,161 0,129 -2,160 0,754 -34,831 80,911 36,884
1 7,51 751 22,044 -23,620 27,493 0,825 -0,409 0,579 69,616 175,105 -17,436
1 7,52 752 22,972 -23,318 27,709 1,620 0,527 0,378 79,525 93,571 -20,088
1 7,53 753 24,203 -22,472 27,977 2,149 1,478 0,467 52,901 95,073 8,872
1 7,54 754 25,749 -21,202 28,309 2,697 2,217 0,580 54,856 73,904 11,260
1 7,55 755 27,072 -19,444 28,784 2,310 3,068 0,829 -38,739 85,123 24,939
1 7,56 756 31,804 -16,418 28,579 8,259 5,281 -0,358 594,912 221,350 -118,682
1 7,57 757 33,995 -14,944 28,384 3,823 2,572 -0,340 -443,645 -270,919 1,750
1 7,58 758 36,125 -13,994 28,283 3,718 1,659 -0,176 -10,458 -91,306 16,409
1 7,59 759 38,158 -13,706 28,262 3,549 0,502 -0,037 -16,967 -115,726 13,924
1 7,60 760 39,833 -14,065 28,522 2,923 -0,627 0,454 -62,573 -112,909 49,071
1 7,61 761 40,886 -15,067 29,233 1,838 -1,749 1,241 -108,482 -112,170 78,776
1 7,62 762 41,307 -16,319 30,385 0,735 -2,184 2,011 -110,257 -43,529 76,905
1 7,63 763 42,095 -17,836 31,646 1,376 -2,648 2,201 64,025 -46,361 19,075
1 7,64 764 44,257 -19,502 33,919 3,773 -2,907 3,967 239,740 -25,934 176,531
1 7,65 765 45,486 -19,454 34,881 2,145 0,083 1,679 -162,762 299,034 -228,766
1 7,66 766 46,994 -19,000 35,497 2,632 0,792 1,076 48,682 70,851 -60,292
1 7,67 767 48,806 -18,380 35,896 3,162 1,084 0,696 52,935 29,206 -38,047
1 7,68 768 50,979 -17,744 36,134 3,793 1,110 0,416 63,177 2,576 -28,001
1 7,69 769 53,194 -17,117 36,211 3,866 1,093 0,134 7,272 -1,611 -28,166
1 7,70 770 54,890 -16,305 36,521 2,958 1,418 0,542 -90,762 32,417 40,790
1 7,71 771 59,414 -14,100 35,777 7,897 3,849 -1,299 493,832 243,139 -184,062
1 7,72 772 60,901 -12,714 35,254 2,596 2,419 -0,912 -530,121 -142,955 38,642
1 7,73 773 62,122 -11,395 34,643 2,130 2,302 -1,067 -46,518 -11,770 -15,445
1 7,74 774 63,134 -10,349 34,222 1,766 1,825 -0,734 -36,390 -47,664 33,269
1 7,75 775 64,070 -9,668 34,377 1,633 1,189 0,270 -13,299 -63,604 100,414
1 7,76 776 64,653 -9,086 35,626 1,017 1,016 2,181 -61,631 -17,253 191,083
1 7,77 777 65,804 -9,112 36,751 2,010 -0,046 1,963 99,243 -106,235 -21,787
1 7,78 778 68,511 -9,964 38,933 4,724 -1,488 3,809 271,406 -144,223 184,578
1 7,79 779 69,899 -10,307 40,265 2,424 -0,598 2,324 -230,004 89,039 -148,449
1 7,80 780 71,300 -10,736 41,695 2,444 -0,748 2,496 2,059 -15,049 17,208
1 7,81 781 72,554 -11,145 43,143 2,190 -0,715 2,528 -25,421 3,320 3,157
1 7,82 782 73,550 -11,362 44,419 1,738 -0,378 2,227 -45,165 33,700 -30,125
1 7,83 783 74,374 -11,296 45,428 1,438 0,114 1,760 -30,017 49,226 -46,635
1 7,84 784 74,273 -10,607 46,349 -0,177 1,203 1,607 -161,502 108,840 -15,281
1 7,85 785 74,934 -10,022 46,766 1,154 1,021 0,729 133,076 -18,140 -87,859
1 7,86 786 75,999 -9,127 47,130 1,859 1,562 0,634 70,478 54,079 -9,481
1 7,87 787 75,883 -8,591 47,474 -0,203 0,935 0,601 -206,182 -62,665 -3,331
1 7,88 788 75,782 -8,211 47,802 -0,176 0,664 0,573 2,667 -27,108 -2,781
1 7,89 789 75,671 -7,928 48,120 -0,193 0,493 0,554 -1,683 -17,087 -1,862
1 7,90 790 75,455 -7,782 48,493 -0,377 0,255 0,652 -18,400 -23,850 9,783
1 7,91 791 74,874 -7,583 49,145 -1,014 0,347 1,138 -63,704 9,205 48,608
1 7,92 792 74,654 -7,554 49,769 -0,384 0,051 1,088 63,066 -29,602 -5,060
1 7,93 793 75,110 -7,086 51,069 0,796 0,816 2,270 117,924 76,501 118,279
1 7,94 794 75,149 -6,648 51,667 0,069 0,764 1,043 -72,685 -5,185 -122,735
1 7,95 795 75,257 -6,238 52,260 0,189 0,716 1,035 12,026 -4,838 -0,834
1 7,96 796 75,339 -5,889 52,858 0,143 0,609 1,044 -4,592 -10,630 0,926
1 7,97 797 75,382 -5,615 53,455 0,075 0,479 1,042 -6,794 -13,038 -0,229
1 7,98 798 75,127 -5,125 54,034 -0,445 0,855 1,011 -52,030 37,629 -3,089
1 7,99 799 75,389 -4,910 54,457 0,456 0,374 0,739 90,160 -48,105 -27,208
1 8,00 800 75,576 -4,722 54,757 0,326 0,328 0,523 -13,021 -4,616 -21,609
1 8,01 801 75,495 -4,531 54,942 -0,140 0,334 0,324 -46,647 0,560 -19,833
1 8,02 802 75,442 -4,440 55,195 -0,092 0,159 0,440 4,784 -17,515 11,591
1 8,03 803 75,360 -4,393 55,498 -0,144 0,082 0,530 -5,190 -7,637 8,979
1 8,04 804 75,423 -4,402 55,824 0,110 -0,017 0,569 25,423 -9,914 3,910
1 8,05 805 75,715 -4,447 56,115 0,511 -0,077 0,507 40,083 -6,055 -6,237
1 8,06 806 76,044 -4,600 56,498 0,574 -0,268 0,669 6,363 -19,018 16,217
1 8,07 807 76,216 -4,639 56,878 0,300 -0,068 0,663 -27,441 19,920 -0,573
1 8,08 808 74,859 -4,495 55,967 -2,370 0,251 -1,589 -266,951 31,944 -225,244
1 8,09 809 75,128 -4,516 56,178 0,471 -0,037 0,369 284,046 -28,776 195,783
1 8,10 810 75,529 -4,566 56,493 0,698 -0,086 0,550 22,755 -4,947 18,142
1 8,11 811 75,893 -4,584 56,931 0,636 -0,031 0,764 -6,287 5,529 21,440
1 8,12 812 76,271 -4,594 58,497 0,661 -0,017 2,732 2,519 1,344 196,723
1 8,13 813 76,455 -4,787 57,901 0,320 -0,337 -1,039 -34,037 -31,963 -377,072
1 8,14 814 76,815 -5,081 56,771 0,628 -0,513 -1,972 30,744 -17,608 -93,336
1 8,15 815 77,866 -5,556 53,735 1,836 -0,829 -5,298 120,796 -31,549 -332,557
1 8,16 816 78,580 -5,825 52,365 1,245 -0,471 -2,391 -59,096 35,777 290,681
1 8,17 817 79,311 -6,125 51,285 1,276 -0,523 -1,885 3,114 -5,246 50,609
1 8,18 818 79,861 -6,414 50,368 0,961 -0,504 -1,600 -31,524 1,950 28,487
1 8,19 819 80,262 -6,631 49,659 0,699 -0,379 -1,239 -26,156 12,471 36,170
1 8,20 820 80,490 -6,799 49,288 0,398 -0,293 -0,646 -30,117 8,641 59,214
1 8,21 821 80,387 -6,714 49,440 -0,180 0,147 0,265 -57,789 44,021 91,193
1 8,22 822 79,725 -6,598 50,835 -1,155 0,203 2,435 -97,544 5,541 216,938
1 8,23 823 79,354 -6,642 51,639 -0,647 -0,077 1,402 50,868 -27,990 -103,298
1 8,24 824 79,003 -6,723 52,412 -0,613 -0,141 1,350 3,403 -6,389 -5,141
1 8,25 825 78,718 -6,852 53,154 -0,499 -0,225 1,294 11,408 -8,437 -5,682
1 8,26 826 78,570 -6,983 53,858 -0,257 -0,228 1,229 24,124 -0,306 -6,463
1 8,27 827 78,664 -7,290 54,360 0,163 -0,537 0,876 41,999 -30,854 -35,305
1 8,28 828 78,778 -7,508 54,345 0,200 -0,381 -0,025 3,705 15,600 -90,117
1 8,29 829 78,993 -7,748 53,666 0,375 -0,418 -1,186 17,567 -3,701 -116,085
1 8,30 830 79,610 -7,958 50,925 1,076 -0,367 -4,783 70,074 5,060 -359,740
1 8,31 831 80,115 -7,938 49,683 0,881 0,036 -2,168 -19,525 40,347 261,591
1 8,32 832 80,611 -7,838 48,865 0,866 0,174 -1,429 -1,475 13,788 73,897
1 8,33 833 81,023 -7,786 48,495 0,719 0,091 -0,645 -14,753 -8,308 78,370
1 8,34 834 81,316 -7,795 48,402 0,511 -0,016 -0,162 -20,741 -10,656 48,245
1 8,35 835 81,584 -7,900 48,481 0,469 -0,184 0,137 -4,210 -16,859 29,973
1 8,36 836 81,767 -7,955 48,780 0,319 -0,095 0,523 -14,980 8,903 38,527
1 8,37 837 81,922 -7,916 49,380 0,270 0,068 1,047 -4,919 16,303 52,414
1 8,38 838 82,023 -7,835 49,548 0,176 0,141 0,293 -9,433 7,291 -75,326
1 8,39 839 82,122 -7,726 49,653 0,173 0,190 0,184 -0,257 4,957 -10,937
1 8,40 840 82,191 -7,580 49,737 0,120 0,255 0,145 -5,301 6,455 -3,892
1 8,41 841 82,243 -7,428 49,818 0,091 0,264 0,143 -2,890 0,935 -0,230
1 8,42 842 82,222 -7,360 49,865 -0,038 0,119 0,082 -12,907 -14,557 -6,078
1 8,43 843 82,197 -7,251 49,968 -0,042 0,192 0,180 -0,472 7,303 9,744
1 8,44 844 82,059 -7,065 50,396 -0,242 0,323 0,746 -19,970 13,129 56,609
1 8,45 845 81,911 -7,057 50,618 -0,258 0,015 0,389 -1,582 -30,838 -35,706
1 8,46 846 81,734 -7,043 50,775 -0,308 0,025 0,274 -4,994 1,001 -11,460
1 8,47 847 81,505 -7,004 50,856 -0,400 0,068 0,141 -9,214 4,291 -13,314
1 8,48 848 81,232 -6,939 50,838 -0,476 0,114 -0,031 -7,588 4,640 -17,223
1 8,49 849 81,111 -6,966 50,702 -0,212 -0,047 -0,238 26,362 -16,092 -20,622
1 8,50 850 80,775 -6,884 50,521 -0,586 0,143 -0,315 -37,341 18,978 -7,761
1 8,51 851 80,447 -6,816 50,276 -0,573 0,118 -0,428 1,295 -2,519 -11,250
1 8,52 852 79,582 -6,667 49,949 -1,510 0,261 -0,570 -93,760 14,305 -14,246
1 8,53 853 79,277 -6,744 49,861 -0,532 -0,133 -0,154 97,810 -39,420 41,627
1 8,54 854 79,006 -6,913 49,887 -0,473 -0,295 0,045 5,924 -16,191 19,870
1 8,55 855 78,775 -7,151 50,015 -0,403 -0,417 0,225 7,043 -12,111 18,022
1 8,56 856 78,736 -7,540 50,065 -0,067 -0,677 0,086 33,551 -26,095 -13,894
1 8,57 857 78,501 -7,799 50,201 -0,412 -0,453 0,238 -34,477 22,437 15,246
1 8,58 858 78,220 -8,030 50,292 -0,489 -0,402 0,158 -7,701 5,092 -8,000
1 8,59 859 77,103 -8,054 50,095 -1,950 -0,042 -0,344 -146,086 35,998 -50,222
1 8,60 860 76,570 -7,998 49,827 -0,930 0,097 -0,469 101,930 13,950 -12,504
1 8,61 861 76,012 -7,934 49,513 -0,973 0,111 -0,547 -4,296 1,374 -7,782
1 8,62 862 75,464 -7,879 49,226 -0,958 0,097 -0,502 1,565 -1,421 4,504
1 8,63 863 74,953 -7,871 49,001 -0,892 0,013 -0,393 6,601 -8,364 10,874
1 8,64 864 74,771 -8,072 48,648 -0,317 -0,350 -0,616 57,449 -36,284 -22,362
1 8,65 865 74,431 -8,223 48,562 -0,593 -0,265 -0,150 -27,577 8,515 46,608
1 8,66 866 73,808 -8,643 48,896 -1,087 -0,733 0,583 -49,448 -46,843 73,337
1 8,67 867 73,721 -8,999 49,115 -0,152 -0,621 0,383 93,541 11,223 -20,001
1 8,68 868 73,643 -9,373 49,331 -0,136 -0,654 0,377 1,588 -3,294 -0,623
1 8,69 869 73,517 -9,661 49,421 -0,219 -0,501 0,156 -8,315 15,226 -22,054
1 8,70 870 73,282 -9,771 49,272 -0,410 -0,192 -0,259 -19,085 30,899 -41,572
1 8,71 871 73,293 -9,751 48,842 0,018 0,035 -0,751 42,816 22,772 -49,123
1 8,72 872 72,890 -9,620 48,372 -0,702 0,229 -0,821 -72,043 19,367 -6,999
1 8,73 873 72,446 -9,457 47,838 -0,775 0,284 -0,932 -7,224 5,473 -11,125
1 8,74 874 71,070 -9,276 47,132 -2,402 0,316 -1,231 -162,714 3,211 -29,897
1 8,75 875 70,596 -9,515 46,946 -0,827 -0,417 -0,325 157,470 -73,288 90,571
1 8,76 876 70,186 -10,030 46,986 -0,716 -0,899 0,070 11,071 -48,166 39,567
1 8,77 877 69,822 -10,846 47,245 -0,635 -1,425 0,451 8,140 -52,606 38,103
1 8,78 878 69,840 -12,150 47,320 0,032 -2,275 0,130 66,688 -85,001 -32,102
1 8,79 879 69,607 -13,428 47,800 -0,407 -2,231 0,839 -43,913 4,359 70,847
1 8,80 880 69,464 -14,512 48,146 -0,248 -1,893 0,604 15,900 33,842 -23,521
1 8,81 881 68,080 -15,138 48,052 -2,416 -1,092 -0,165 -216,764 80,108 -76,902
1 8,82 882 67,213 -14,862 47,408 -1,513 0,481 -1,124 90,250 157,286 -95,861
1 8,83 883 66,240 -14,383 46,626 -1,698 0,837 -1,364 -18,420 35,571 -24,046
1 8,84 884 65,280 -13,894 45,857 -1,676 0,853 -1,342 2,141 1,637 2,217
1 8,85 885 64,312 -13,495 45,153 -1,690 0,697 -1,228 -1,371 -15,645 11,442
1 8,86 886 63,753 -13,458 44,273 -0,975 0,064 -1,536 71,542 -63,309 -30,864
1 8,87 887 62,960 -13,579 43,695 -1,384 -0,211 -1,009 -40,913 -27,521 52,734
1 8,88 888 61,361 -14,721 43,295 -2,791 -1,993 -0,698 -140,715 -178,160 31,118
1 8,89 889 60,746 -15,666 43,081 -1,075 -1,649 -0,374 171,592 34,381 32,344
1 8,90 890 60,016 -16,571 42,813 -1,274 -1,579 -0,467 -19,879 7,044 -9,249
1 8,91 891 59,181 -17,202 42,298 -1,458 -1,101 -0,899 -18,400 47,775 -43,168
1 8,92 892 58,110 -17,273 41,702 -1,869 -0,124 -1,041 -41,112 97,731 -14,259
1 8,93 893 56,953 -16,999 41,253 -2,019 0,477 -0,783 -14,984 60,095 25,835
1 8,94 894 55,319 -16,315 40,772 -2,852 1,195 -0,840 -83,315 71,771 -5,734
1 8,95 895 53,743 -15,496 40,249 -2,751 1,429 -0,913 10,100 23,448 -7,263
1 8,96 896 50,592 -14,313 39,569 -5,500 2,064 -1,186 -274,897 63,474 -27,280
1 8,97 897 49,532 -14,472 39,382 -1,851 -0,277 -0,326 364,855 -234,081 85,973
1 8,98 898 48,765 -15,042 39,221 -1,338 -0,995 -0,281 51,303 -71,856 4,451
1 8,99 899 48,236 -15,969 38,997 -0,923 -1,618 -0,391 41,543 -62,228 -10,951
1 9,00 900 48,275 -17,383 38,358 0,067 -2,468 -1,116 99,007 -85,030 -72,548
1 9,01 901 48,065 -18,751 38,047 -0,366 -2,389 -0,542 -43,317 7,893 57,458
1 9,02 902 47,924 -20,118 37,691 -0,246 -2,385 -0,621 11,988 0,401 -7,911
1 9,03 903 47,186 -21,724 37,158 -1,289 -2,804 -0,930 -104,293 -41,864 -30,953
1 9,04 904 46,539 -21,699 36,620 -1,129 0,044 -0,939 16,030 284,804 -0,904
1 9,05 905 45,538 -21,197 36,114 -1,748 0,876 -0,882 -61,906 83,168 5,701
1 9,06 906 44,356 -20,618 35,697 -2,063 1,010 -0,729 -31,543 13,396 15,396
1 9,07 907 43,248 -20,132 35,494 -1,933 0,848 -0,354 12,975 -16,257 37,447
1 9,08 908 42,046 -19,640 35,268 -2,098 0,859 -0,394 -16,470 1,173 -3,998
1 9,09 909 40,945 -19,287 35,049 -1,921 0,616 -0,383 17,685 -24,354 1,072
1 9,10 910 39,086 -19,263 34,585 -3,245 0,043 -0,809 -132,393 -57,278 -42,535
1 9,11 911 38,421 -19,396 34,270 -1,161 -0,232 -0,551 208,447 -27,522 25,766
1 9,12 912 37,850 -19,605 33,872 -0,997 -0,365 -0,694 16,363 -13,316 -14,297
1 9,13 913 37,356 -19,800 33,431 -0,861 -0,340 -0,770 13,572 2,587 -7,629
1 9,14 914 36,859 -19,736 32,992 -0,868 0,111 -0,767 -0,685 45,089 0,367
1 9,15 915 36,346 -19,338 32,730 -0,895 0,694 -0,457 -2,652 58,309 30,963
1 9,16 916 35,479 -18,419 32,686 -1,514 1,604 -0,075 -61,944 90,944 38,157
1 9,17 917 34,452 -17,214 32,744 -1,792 2,103 0,100 -27,831 49,918 17,564
1 9,18 918 33,397 -15,897 32,855 -1,841 2,298 0,194 -4,818 19,541 9,390
1 9,19 919 31,327 -13,748 32,813 -3,614 3,751 -0,073 -177,312 145,273 -26,739
1 9,20 920 30,530 -13,178 32,641 -1,390 0,994 -0,300 222,367 -275,688 -22,656
1 9,21 921 29,901 -13,005 32,318 -1,099 0,302 -0,564 29,135 -69,200 -26,418
1 9,22 922 29,615 -12,978 31,792 -0,498 0,048 -0,919 60,063 -25,414 -35,458
1 9,23 923 29,308 -13,452 31,210 -0,536 -0,827 -1,015 -3,820 -87,536 -9,643
1 9,24 924 29,097 -14,045 30,558 -0,368 -1,036 -1,139 16,820 -20,854 -12,424
1 9,25 925 28,686 -15,136 29,226 -0,717 -1,904 -2,324 -34,907 -86,820 -118,461
1 9,26 926 28,545 -15,399 28,568 -0,246 -0,459 -1,149 47,103 144,452 117,519
1 9,27 927 28,309 -15,390 28,100 -0,412 0,015 -0,817 -16,629 47,452 33,193
1 9,28 928 27,955 -15,109 27,816 -0,618 0,491 -0,496 -20,552 47,580 32,035
1 9,29 929 27,562 -14,625 27,801 -0,685 0,845 -0,025 -6,706 35,435 47,094
1 9,30 930 26,930 -14,156 27,817 -1,104 0,819 0,028 -41,892 -2,668 5,317
1 9,31 931 26,271 -13,863 27,866 -1,150 0,511 0,085 -4,575 -30,724 5,759
1 9,32 932 24,627 -13,900 27,506 -2,871 -0,065 -0,628 -172,093 -57,667 -71,313
1 9,33 933 23,851 -14,171 27,253 -1,353 -0,473 -0,442 151,769 -40,759 18,552
1 9,34 934 23,040 -14,515 26,865 -1,416 -0,600 -0,677 -6,283 -12,684 -23,456
1 9,35 935 22,247 -14,790 26,487 -1,384 -0,480 -0,660 3,186 11,958 1,716
1 9,36 936 21,494 -14,880 26,185 -1,314 -0,156 -0,527 6,939 32,412 13,227
1 9,37 937 20,573 -14,667 26,027 -1,608 0,372 -0,276 -29,371 52,788 25,133
1 9,38 938 19,629 -14,240 25,976 -1,647 0,744 -0,089 -3,881 37,179 18,689
1 9,39 939 18,687 -13,780 25,994 -1,645 0,803 0,031 0,229 5,966 12,014
1 9,40 940 16,748 -13,104 25,879 -3,383 1,181 -0,201 -173,866 37,729 -23,159
1 9,41 941 15,927 -13,022 25,777 -1,434 0,143 -0,177 194,948 -103,791 2,382
1 9,42 942 15,147 -13,006 25,643 -1,360 0,028 -0,235 7,351 -11,511 -5,804
1 9,43 943 14,350 -12,996 25,373 -1,392 0,018 -0,471 -3,203 -0,945 -23,659
1 9,44 944 13,722 -12,988 25,236 -1,096 0,013 -0,238 29,615 -0,456 23,315
1 9,45 945 12,838 -12,737 25,139 -1,542 0,438 -0,170 -44,583 42,443 6,836
1 9,46 946 11,881 -12,263 25,060 -1,671 0,829 -0,137 -12,913 39,075 3,286
1 9,47 947 9,824 -11,092 24,994 -3,589 2,043 -0,115 -191,776 121,446 2,176
1 9,48 948 9,114 -10,236 25,181 -1,239 1,494 0,327 234,951 -54,894 44,199
1 9,49 949 8,669 -9,276 25,458 -0,777 1,675 0,483 46,275 18,059 15,636
1 9,50 950 8,458 -8,336 25,817 -0,369 1,641 0,627 40,740 -3,378 14,393
1 9,51 951 9,256 -7,520 26,243 1,393 1,425 0,743 176,239 -21,649 11,593
1 9,52 952 8,736 -6,576 26,653 -0,908 1,648 0,716 -230,089 22,340 -2,656
1 9,53 953 7,714 -5,550 26,879 -1,783 1,791 0,394 -87,488 14,262 -32,241
1 9,54 954 4,971 -4,239 27,270 -4,788 2,288 0,683 -300,531 49,701 28,866
1 9,55 955 3,441 -3,732 27,291 -2,670 0,885 0,035 211,822 -140,279 -64,720
1 9,56 956 1,928 -3,401 27,207 -2,642 0,578 -0,147 2,820 -30,656 -18,209
1 9,57 957 0,440 -3,229 27,039 -2,596 0,300 -0,293 4,538 -27,782 -14,654
1 9,58 958 -1,028 -3,004 26,662 -2,562 0,392 -0,658 3,380 9,160 -36,457
1 9,59 959 -2,334 -3,114 26,560 -2,279 -0,193 -0,178 28,304 -58,452 47,988
1 9,60 960 -3,473 -3,245 26,555 -1,988 -0,228 -0,009 29,160 -3,576 16,915
1 9,61 961 -4,430 -3,335 26,582 -1,671 -0,156 0,047 31,706 7,226 5,598
1 9,62 962 -6,002 -3,570 27,000 -2,743 -0,410 0,730 -107,229 -25,425 68,300
1 9,63 963 -6,423 -3,548 27,138 -0,736 0,037 0,241 200,727 44,758 -48,894
1 9,64 964 -6,604 -3,544 27,251 -0,316 0,008 0,197 41,989 -2,896 -4,424
1 9,65 965 -6,515 -3,567 27,288 0,156 -0,040 0,065 47,194 -4,853 -13,245
1 9,66 966 -6,008 -3,519 27,073 0,884 0,083 -0,376 72,821 12,365 -44,036
1 9,67 967 -5,544 -3,615 26,864 0,810 -0,169 -0,365 -7,470 -25,202 1,061
1 9,68 968 -4,999 -3,738 26,602 0,952 -0,214 -0,457 14,251 -4,557 -9,143
1 9,69 969 -3,871 -3,962 26,168 1,969 -0,390 -0,758 101,652 -17,585 -30,179
1 9,70 970 -3,242 -4,127 25,922 1,096 -0,288 -0,429 -87,224 10,202 32,899
1 9,71 971 -2,565 -4,314 25,632 1,182 -0,327 -0,506 8,521 -3,938 -7,642
1 9,72 972 -1,989 -4,561 25,271 1,006 -0,431 -0,630 -17,520 -10,360 -12,369
1 9,73 973 -1,565 -4,921 24,764 0,740 -0,629 -0,884 -26,678 -19,758 -25,480
1 9,74 974 -1,294 -5,257 24,373 0,473 -0,586 -0,684 -26,655 4,210 20,069
1 9,75 975 -1,105 -5,513 24,093 0,329 -0,446 -0,488 -14,428 14,018 19,520
1 9,76 976 -0,902 -5,594 24,151 0,355 -0,141 0,101 2,592 30,487 58,966
1 9,77 977 -0,918 -5,560 24,172 -0,027 0,060 0,037 -38,149 20,097 -6,463
1 9,78 978 -1,011 -5,514 24,080 -0,162 0,079 -0,161 -13,568 1,950 -19,777
1 9,79 979 -1,137 -5,548 23,869 -0,220 -0,059 -0,368 -5,805 -13,844 -20,697
1 9,80 980 -1,328 -5,790 23,531 -0,334 -0,422 -0,589 -11,351 -36,309 -22,063
1 9,81 981 -1,406 -6,014 23,235 -0,136 -0,389 -0,517 19,763 3,299 7,159
1 9,82 982 -1,429 -6,299 22,872 -0,040 -0,498 -0,633 9,635 -10,865 -11,622
1 9,83 983 -1,432 -6,597 22,535 -0,004 -0,520 -0,588 3,581 -2,239 4,543
1 9,84 984 -1,355 -6,907 22,221 0,135 -0,540 -0,549 13,905 -1,973 3,886
1 9,85 985 -1,262 -7,000 22,074 0,162 -0,163 -0,257 2,711 37,681 29,242
1 9,86 986 -1,187 -7,039 21,927 0,130 -0,068 -0,256 -3,197 9,581 0,075
1 9,87 987 -1,159 -7,050 21,832 0,049 -0,019 -0,166 -8,088 4,816 8,995
1 9,88 988 -1,304 -7,124 21,709 -0,252 -0,128 -0,215 -30,143 -10,870 -4,881
1 9,89 989 -1,268 -7,175 21,652 0,062 -0,089 -0,099 31,412 3,920 11,532
1 9,90 990 -1,202 -7,248 21,572 0,115 -0,129 -0,140 5,341 -3,965 -4,024
1 9,91 991 -1,052 -7,521 21,178 0,262 -0,477 -0,688 14,688 -34,827 -54,812
1 9,92 992 -0,975 -7,727 20,983 0,134 -0,359 -0,340 -12,777 11,756 34,818
1 9,93 993 -0,875 -7,901 20,864 0,175 -0,303 -0,208 4,079 5,669 13,175
1 9,94 994 -0,761 -8,015 20,884 0,199 -0,200 0,034 2,426 10,284 24,230
1 9,95 995 -0,662 -8,027 21,056 0,172 -0,021 0,301 -2,724 17,914 26,657
1 9,96 996 -0,564 -8,005 21,157 0,171 0,038 0,176 -0,095 5,856 -12,462
1 9,97 997 -0,432 -7,955 21,247 0,231 0,087 0,157 6,000 4,929 -1,985
1 9,98 998 -0,018 -7,926 21,181 0,722 0,051 -0,115 49,100 -3,582 -27,111
1 9,99 999 0,162 -7,915 21,185 0,314 0,019 0,007 -40,865 -3,240 12,124
1 10,00 1000 0,339 -7,938 21,221 0,310 -0,040 0,062 -0,381 -5,914 5,566
1 10,01 1001 0,555 -8,011 21,275 0,377 -0,129 0,095 6,722 -8,844 3,222
1 10,02 1002 0,818 -8,104 21,385 0,458 -0,161 0,192 8,106 -3,270 9,788
1 10,03 1003 1,185 -8,230 21,372 0,641 -0,221 -0,022 18,279 -5,955 -21,469
1 10,04 1004 1,622 -8,359 21,340 0,763 -0,225 -0,056 12,234 -0,380 -3,337
1 10,05 1005 2,105 -8,473 21,274 0,844 -0,198 -0,117 8,059 2,658 -6,094
1 10,06 1006 3,161 -8,615 21,163 1,842 -0,249 -0,192 99,798 -5,066 -7,563
1 10,07 1007 3,678 -8,609 21,281 0,904 0,011 0,204 -93,792 25,981 39,670
1 10,08 1008 4,215 -8,587 21,436 0,937 0,038 0,271 3,293 2,737 6,610
1 10,09 1009 4,676 -8,599 21,442 0,804 -0,022 0,012 -13,288 -6,083 -25,901
1 10,10 1010 5,226 -8,594 21,621 0,961 0,010 0,312 15,694 3,210 30,052
1 10,11 1011 5,811 -8,585 21,772 1,021 0,016 0,264 6,052 0,584 -4,793
1 10,12 1012 6,460 -8,627 21,905 1,132 -0,074 0,232 11,079 -8,914 -3,211
1 10,13 1013 8,185 -9,021 21,878 3,011 -0,687 -0,048 187,935 -61,340 -28,028
1 10,14 1014 9,085 -9,345 21,589 1,570 -0,566 -0,505 -144,167 12,076 -45,628
1 10,15 1015 10,060 -9,723 21,190 1,702 -0,660 -0,695 13,196 -9,406 -19,068
1 10,16 1016 11,004 -10,190 20,667 1,649 -0,815 -0,914 -5,317 -15,434 -21,867
1 10,17 1017 12,089 -10,518 20,363 1,893 -0,572 -0,530 24,431 24,248 38,382
1 10,18 1018 13,211 -10,692 20,262 1,960 -0,305 -0,175 6,684 26,715 35,481
1 10,19 1019 14,380 -10,694 20,358 2,039 -0,002 0,167 7,942 30,268 34,246
1 10,20 1020 17,011 -10,247 20,988 4,593 0,779 1,099 255,384 78,136 93,172
1 10,21 1021 18,309 -10,186 21,232 2,266 0,107 0,427 -232,736 -67,248 -67,228
1 10,22 1022 19,600 -10,285 21,384 2,252 -0,172 0,264 -1,398 -27,844 -16,246
1 10,23 1023 20,920 -10,543 21,367 2,305 -0,451 -0,029 5,314 -27,953 -29,320
1 10,24 1024 21,955 -11,051 21,023 1,806 -0,886 -0,601 -49,858 -43,490 -57,203
1 10,25 1025 23,389 -11,603 20,877 2,503 -0,962 -0,255 69,639 -7,612 34,596
1 10,26 1026 24,859 -12,126 20,840 2,566 -0,913 -0,063 6,353 4,915 19,160
1 10,27 1027 26,343 -12,545 20,928 2,590 -0,732 0,153 2,356 18,129 21,639
1 10,28 1028 29,790 -12,898 21,205 6,017 -0,615 0,483 342,734 11,670 33,007
1 10,29 1029 31,465 -13,230 21,386 2,923 -0,580 0,316 -309,435 3,523 -16,657
1 10,30 1030 33,166 -13,678 21,590 2,970 -0,783 0,355 4,700 -20,263 3,890
1 10,31 1031 34,135 -14,515 22,050 1,690 -1,461 0,804 -127,923 -67,818 44,891
1 10,32 1032 35,471 -14,849 22,326 2,332 -0,583 0,481 64,131 87,816 -32,285
1 10,33 1033 36,726 -15,045 22,609 2,191 -0,341 0,493 -14,108 24,142 1,174
1 10,34 1034 37,945 -15,121 22,832 2,128 -0,132 0,390 -6,257 20,874 -10,266
1 10,35 1035 41,364 -15,371 23,220 5,967 -0,438 0,676 383,917 -30,524 28,582
1 10,36 1036 42,619 -15,563 23,613 2,190 -0,335 0,686 -377,684 10,294 0,983
1 10,37 1037 43,850 -15,787 24,121 2,148 -0,390 0,887 -4,247 -5,535 20,091
1 10,38 1038 44,705 -15,968 25,171 1,493 -0,316 1,832 -65,525 7,373 94,495
1 10,39 1039 46,135 -16,235 26,050 2,496 -0,465 1,534 100,306 -14,860 -29,758
1 10,40 1040 47,485 -16,492 27,032 2,357 -0,449 1,713 -13,912 1,613 17,902
1 10,41 1041 48,684 -16,673 27,942 2,092 -0,316 1,589 -26,460 13,266 -12,428
1 10,42 1042 51,083 -16,800 28,835 4,187 -0,221 1,558 209,454 9,481 -3,152
1 10,43 1043 51,909 -16,884 29,450 1,443 -0,147 1,074 -274,405 7,438 -48,384
1 10,44 1044 52,972 -16,998 29,917 1,856 -0,199 0,815 41,314 -5,176 -25,866
1 10,45 1045 54,144 -17,106 30,333 2,044 -0,188 0,726 18,878 1,047 -8,873
1 10,46 1046 55,065 -16,843 30,671 1,608 0,459 0,590 -43,654 64,691 -13,640
1 10,47 1047 56,511 -16,847 31,252 2,523 -0,007 1,013 91,481 -46,530 42,332
1 10,48 1048 57,659 -16,443 31,773 2,004 0,705 0,909 -51,888 71,149 -10,390
1 10,49 1049 58,241 -15,508 32,168 1,017 1,632 0,689 -98,696 92,679 -22,017
1 10,50 1050 59,246 -13,448 32,243 1,754 3,597 0,131 73,671 196,500 -55,818
1 10,51 1051 58,918 -12,248 32,407 -0,572 2,094 0,286 -232,607 -150,290 15,514
1 10,52 1052 58,483 -11,215 32,626 -0,759 1,802 0,382 -18,601 -29,148 9,609
1 10,53 1053 58,419 -10,647 33,020 -0,113 0,992 0,689 64,572 -81,069 30,628
1 10,54 1054 57,732 -10,041 34,006 -1,199 1,058 1,721 -108,655 6,603 103,204
1 10,55 1055 58,312 -10,389 34,813 1,013 -0,607 1,409 221,248 -166,469 -31,188
1 10,56 1056 59,402 -10,992 35,735 1,902 -1,051 1,609 88,900 -44,426 20,030
1 10,57 1057 62,576 -12,183 37,365 5,540 -2,080 2,846 363,758 -102,876 123,661
1 10,58 1058 63,697 -12,037 37,929 1,956 0,256 0,984 -358,325 233,579 -186,166
1 10,59 1059 64,703 -11,630 38,268 1,757 0,711 0,591 -19,981 45,514 -39,269
1 10,60 1060 64,658 -10,481 38,609 -0,080 2,005 0,596 -183,651 129,394 0,469
1 10,61 1061 65,199 -9,607 38,577 0,944 1,526 -0,056 102,400 -47,890 -65,190
1 10,62 1062 65,648 -8,782 38,462 0,784 1,440 -0,202 -16,036 -8,575 -14,594
1 10,63 1063 66,092 -8,163 38,539 0,775 1,081 0,135 -0,876 -35,915 33,718
1 10,64 1064 67,578 -7,913 39,486 2,595 0,435 1,653 181,961 -64,560 151,765
1 10,65 1065 67,934 -7,645 40,325 0,621 0,468 1,465 -197,321 3,221 -18,827
1 10,66 1066 68,378 -7,376 41,106 0,773 0,470 1,363 15,190 0,203 -10,197
1 10,67 1067 68,929 -6,885 41,454 0,963 0,858 0,607 18,929 38,832 -75,584
1 10,68 1068 69,708 -6,815 41,789 1,360 0,121 0,585 39,755 -73,657 -2,180
1 10,69 1069 70,351 -6,585 41,876 1,121 0,402 0,152 -23,922 28,060 -43,280
1 10,70 1070 70,777 -6,166 41,699 0,744 0,731 -0,310 -37,656 32,879 -46,265
1 10,71 1071 70,973 -5,705 41,298 0,343 0,805 -0,700 -40,171 7,384 -38,926
1 10,72 1072 71,264 -4,963 40,390 0,507 1,295 -1,584 16,440 49,096 -88,398
1 10,73 1073 71,219 -4,631 40,108 -0,079 0,581 -0,493 -58,644 -71,484 109,095
1 10,74 1074 71,268 -4,363 40,258 0,086 0,467 0,262 16,494 -11,326 75,437
1 10,75 1075 71,072 -4,111 40,488 -0,342 0,440 0,402 -42,735 -2,786 14,000
1 10,76 1076 70,953 -4,113 41,022 -0,207 -0,004 0,931 13,509 -44,338 52,941
1 10,77 1077 70,973 -4,195 41,639 0,035 -0,143 1,078 24,149 -13,957 14,718
1 10,78 1078 71,041 -4,238 42,132 0,119 -0,075 0,860 8,386 6,853 -21,824
1 10,79 1079 70,976 -4,015 42,452 -0,114 0,390 0,558 -23,282 46,460 -30,208
1 10,80 1080 71,035 -3,743 42,150 0,104 0,475 -0,526 21,809 8,544 -108,396
1 10,81 1081 71,020 -3,396 41,737 -0,027 0,605 -0,721 -13,063 12,999 -19,495
1 10,82 1082 71,147 -2,964 41,289 0,222 0,755 -0,782 24,886 14,968 -6,096
1 10,83 1083 70,965 -2,745 41,263 -0,318 0,382 -0,047 -54,049 -37,327 73,540
1 10,84 1084 70,814 -2,711 41,506 -0,263 0,059 0,424 5,518 -32,230 47,029
1 10,85 1085 70,767 -2,959 41,968 -0,083 -0,432 0,807 18,061 -49,129 38,278
1 10,86 1086 71,318 -3,819 43,640 0,961 -1,501 2,919 104,389 -106,916 211,210
1 10,87 1087 71,793 -4,400 44,556 0,830 -1,015 1,599 -13,164 48,620 -131,936
1 10,88 1088 72,383 -4,871 45,367 1,030 -0,821 1,414 19,983 19,351 -18,494
1 10,89 1089 72,812 -5,143 45,828 0,748 -0,474 0,805 -28,170 34,728 -60,982
1 10,90 1090 73,316 -5,145 46,061 0,881 -0,005 0,408 13,323 46,943 -39,688
1 10,91 1091 73,599 -4,956 45,959 0,494 0,330 -0,178 -38,748 33,476 -58,587
1 10,92 1092 73,715 -4,671 45,617 0,203 0,498 -0,597 -29,093 16,763 -41,833
1 10,93 1093 73,581 -4,303 45,197 -0,235 0,643 -0,734 -43,777 14,504 -13,697
1 10,94 1094 73,515 -3,934 44,470 -0,115 0,644 -1,269 12,039 0,185 -53,553
1 10,95 1095 73,517 -3,737 44,278 0,004 0,343 -0,334 11,894 -30,181 93,504
1 10,96 1096 73,532 -3,564 44,445 0,025 0,302 0,291 2,093 -4,093 62,459
1 10,97 1097 73,579 -3,658 44,514 0,082 -0,163 0,121 5,656 -46,485 -16,974
1 10,98 1098 73,689 -3,800 44,557 0,193 -0,248 0,074 11,088 -8,463 -4,678
1 10,99 1099 73,879 -3,945 44,451 0,331 -0,253 -0,184 13,859 -0,539 -25,799
1 11,00 1100 74,101 -4,023 44,126 0,387 -0,137 -0,567 5,594 11,652 -38,350
1 11,01 1101 74,313 -3,938 42,913 0,371 0,149 -2,117 -1,601 28,573 -154,930
1 11,02 1102 74,316 -3,743 42,375 0,005 0,340 -0,939 -36,566 19,094 117,762
1 11,03 1103 74,219 -3,517 41,930 -0,170 0,394 -0,778 -17,589 5,440 16,142
1 11,04 1104 74,219 -3,245 41,731 0,001 0,473 -0,347 17,171 7,896 43,059
1 11,05 1105 74,072 -3,198 41,745 -0,257 0,083 0,025 -25,853 -39,080 37,184
1 11,06 1106 73,972 -3,325 42,102 -0,175 -0,222 0,622 8,237 -30,448 59,764
1 11,07 1107 73,961 -3,635 42,624 -0,019 -0,541 0,911 15,543 -31,957 28,871
1 11,08 1108 73,771 -4,378 43,687 -0,331 -1,296 1,856 -31,121 -75,456 94,469
1 11,09 1109 73,996 -4,729 44,036 0,392 -0,613 0,609 72,222 68,330 -124,707
1 11,10 1110 74,244 -4,986 44,082 0,434 -0,448 0,081 4,225 16,498 -52,742
1 11,11 1111 74,923 -5,153 43,803 1,184 -0,291 -0,488 75,051 15,624 -56,938
1 11,12 1112 74,956 -5,116 43,263 0,058 0,063 -0,941 -112,596 35,437 -45,279
1 11,13 1113 74,936 -4,994 42,662 -0,036 0,214 -1,049 -9,392 15,060 -10,828
1 11,14 1114 74,855 -4,848 42,125 -0,141 0,255 -0,938 -10,496 4,114 11,109
1 11,15 1115 74,721 -4,730 41,744 -0,234 0,206 -0,664 -9,390 -4,898 27,381
1 11,16 1116 74,116 -4,995 41,530 -1,056 -0,461 -0,373 -82,183 -66,664 29,109
1 11,17 1117 73,962 -5,135 41,643 -0,268 -0,245 0,196 78,789 21,624 56,937
1 11,18 1118 74,031 -5,248 41,931 0,121 -0,199 0,502 38,942 4,619 30,586
1 11,19 1119 74,003 -5,448 42,214 -0,050 -0,348 0,494 -17,084 -14,947 -0,772
1 11,20 1120 74,041 -5,614 42,426 0,067 -0,291 0,371 11,665 5,745 -12,320
1 11,21 1121 74,052 -5,717 42,488 0,019 -0,180 0,107 -4,742 11,068 -26,380
1 11,22 1122 74,039 -5,716 42,383 -0,024 0,002 -0,183 -4,305 18,153 -28,987
1 11,23 1123 73,814 -5,256 41,963 -0,392 0,804 -0,733 -36,811 80,202 -55,086
1 11,24 1124 73,732 -5,133 41,700 -0,144 0,215 -0,459 24,736 -58,872 27,442
1 11,25 1125 73,647 -5,115 41,526 -0,149 0,031 -0,304 -0,422 -18,361 15,470
1 11,26 1126 73,795 -5,702 41,538 0,259 -1,026 0,021 40,792 -105,688 32,516
1 11,27 1127 73,828 -6,033 41,796 0,058 -0,577 0,452 -20,168 44,819 43,075
1 11,28 1128 73,874 -6,327 42,145 0,080 -0,512 0,608 2,198 6,528 15,646
1 11,29 1129 73,881 -6,653 42,491 0,012 -0,570 0,604 -6,769 -5,794 -0,411
1 11,30 1130 73,758 -6,952 43,009 -0,214 -0,521 0,903 -22,565 4,857 29,938
1 11,31 1131 73,700 -7,115 43,086 -0,102 -0,284 0,135 11,164 23,721 -76,787
1 11,32 1132 73,589 -7,169 43,074 -0,193 -0,095 -0,020 -9,050 18,930 -15,577
1 11,33 1133 73,367 -7,162 43,015 -0,389 0,012 -0,105 -19,637 10,661 -8,423
1 11,34 1134 73,230 -7,010 43,060 -0,238 0,267 0,080 15,117 25,509 18,407
1 11,35 1135 73,159 -6,854 43,138 -0,125 0,271 0,136 11,261 0,447 5,645
1 11,36 1136 73,134 -6,765 43,244 -0,043 0,156 0,186 8,239 -11,549 4,958
1 11,37 1137 73,207 -6,693 43,416 0,126 0,126 0,299 16,919 -2,937 11,312
1 11,38 1138 73,546 -6,720 43,970 0,592 -0,048 0,967 46,577 -17,455 66,853
1 11,39 1139 73,807 -6,820 44,332 0,455 -0,174 0,632 -13,733 -12,564 -33,535
1 11,40 1140 74,231 -7,042 44,783 0,740 -0,388 0,788 28,540 -21,462 15,623
1 11,41 1141 74,584 -7,223 45,128 0,616 -0,316 0,601 -12,456 7,263 -18,696
1 11,42 1142 74,943 -7,364 45,382 0,627 -0,247 0,444 1,155 6,927 -15,704
1 11,43 1143 75,239 -7,464 45,508 0,517 -0,174 0,219 -11,058 7,236 -22,465
1 11,44 1144 75,427 -7,516 45,549 0,329 -0,090 0,072 -18,817 8,402 -14,745
1 11,45 1145 75,468 -7,407 45,439 0,071 0,191 -0,193 -25,750 28,070 -26,497
1 11,46 1146 75,420 -7,396 45,359 -0,084 0,018 -0,139 -15,479 -17,213 5,382
1 11,47 1147 75,297 -7,370 45,300 -0,215 0,046 -0,103 -13,082 2,730 3,565
1 11,48 1148 75,066 -7,497 45,253 -0,403 -0,222 -0,081 -18,866 -26,727 2,205
1 11,49 1149 74,931 -7,471 45,171 -0,235 0,045 -0,142 16,854 26,657 -6,088
1 11,50 1150 74,799 -7,471 45,121 -0,231 -0,000 -0,087 0,350 -4,544 5,491
1 11,51 1151 74,716 -7,483 45,167 -0,144 -0,021 0,081 8,736 -2,035 16,797
1 11,52 1152 74,592 -7,412 45,277 -0,217 0,123 0,192 -7,346 14,400 11,116
1 11,53 1153 74,609 -7,449 45,252 0,030 -0,064 -0,044 24,710 -18,743 -23,581
1 11,54 1154 74,662 -7,484 45,210 0,093 -0,061 -0,074 6,284 0,282 -3,001
1 11,55 1155 74,909 -7,637 45,022 0,430 -0,267 -0,327 33,779 -20,560 -25,272
1 11,56 1156 75,009 -7,693 44,850 0,174 -0,097 -0,300 -25,618 16,955 2,675
1 11,57 1157 75,111 -7,768 44,668 0,178 -0,131 -0,319 0,379 -3,332 -1,875
1 11,58 1158 75,207 -7,867 44,442 0,169 -0,172 -0,393 -0,921 -4,141 -7,429
1 11,59 1159 75,288 -7,980 44,212 0,141 -0,198 -0,402 -2,772 -2,575 -0,926
1 11,60 1160 75,383 -8,170 44,188 0,166 -0,331 -0,042 2,458 -13,284 36,076
1 11,61 1161 75,363 -8,402 44,272 -0,036 -0,405 0,147 -20,142 -7,449 18,842
1 11,62 1162 75,426 -8,776 44,301 0,112 -0,653 0,051 14,739 -24,809 -9,618
1 11,63 1163 75,338 -8,984 44,365 -0,154 -0,363 0,112 -26,585 29,013 6,105
1 11,64 1164 75,199 -9,137 44,425 -0,243 -0,267 0,105 -8,883 9,578 -0,665
1 11,65 1165 75,036 -9,261 44,454 -0,285 -0,215 0,049 -4,205 5,258 -5,562
1 11,66 1166 74,846 -9,371 44,434 -0,331 -0,192 -0,035 -4,629 2,244 -8,449
1 11,67 1167 74,314 -9,452 44,353 -0,928 -0,142 -0,140 -59,639 5,019 -10,470
1 11,68 1168 74,233 -9,605 44,204 -0,141 -0,266 -0,262 78,638 -12,419 -12,173
1 11,69 1169 74,460 -9,953 43,878 0,396 -0,608 -0,568 53,768 -34,122 -30,628
1 11,70 1170 74,541 -10,151 43,592 0,142 -0,346 -0,499 -25,463 26,149 6,899
1 11,71 1171 74,672 -10,323 43,246 0,229 -0,300 -0,606 8,718 4,635 -10,675
1 11,72 1172 74,840 -10,447 42,848 0,293 -0,216 -0,694 6,410 8,332 -8,829
1 11,73 1173 75,020 -10,510 42,379 0,314 -0,110 -0,819 2,061 10,661 -12,546
1 11,74 1174 74,938 -10,282 41,494 -0,143 0,398 -1,544 -45,630 50,812 -72,477
1 11,75 1175 74,912 -10,244 41,012 -0,046 0,067 -0,841 9,714 -33,169 70,316
1 11,76 1176 75,043 -10,419 40,489 0,228 -0,307 -0,912 27,345 -37,313 -7,148
1 11,77 1177 74,947 -10,391 40,074 -0,167 0,048 -0,724 -39,457 35,496 18,840
1 11,78 1178 74,823 -10,340 39,667 -0,217 0,090 -0,710 -4,983 4,178 1,361
1 11,79 1179 74,638 -10,250 39,216 -0,323 0,157 -0,788 -10,604 6,642 -7,809
1 11,80 1180 74,435 -10,168 38,700 -0,354 0,144 -0,900 -3,169 -1,281 -11,110
1 11,81 1181 74,236 -10,084 38,135 -0,348 0,146 -0,986 0,613 0,202 -8,670
1 11,82 1182 73,801 -9,860 36,957 -0,759 0,390 -2,057 -41,062 24,455 -107,094
1 11,83 1183 73,578 -9,692 36,229 -0,390 0,293 -1,270 36,907 -9,713 78,729
1 11,84 1184 73,424 -9,427 35,441 -0,268 0,462 -1,376 12,196 16,885 -10,595
1 11,85 1185 73,797 -9,399 35,089 0,651 0,049 -0,614 91,857 -41,310 76,172
1 11,86 1186 74,388 -9,444 34,784 1,032 -0,079 -0,532 38,126 -12,771 8,218
1 11,87 1187 74,825 -9,456 34,540 0,762 -0,021 -0,425 -27,043 5,805 10,664
1 11,88 1188 75,034 -9,474 34,420 0,365 -0,031 -0,210 -39,645 -1,038 21,558
1 11,89 1189 74,433 -9,582 34,799 -1,049 -0,188 0,662 -141,406 -15,707 87,138
1 11,90 1190 74,043 -9,663 35,109 -0,681 -0,142 0,541 36,765 4,597 -12,051
1 11,91 1191 73,928 -10,020 35,214 -0,200 -0,622 0,183 48,106 -47,963 -35,785
1 11,92 1192 73,376 -10,202 35,352 -0,963 -0,319 0,241 -76,308 30,261 5,724
1 11,93 1193 72,816 -10,370 35,430 -0,977 -0,293 0,136 -1,398 2,616 -10,468
1 11,94 1194 72,257 -10,525 35,430 -0,977 -0,270 0,001 0,010 2,300 -13,525
1 11,95 1195 71,728 -10,676 35,338 -0,922 -0,263 -0,161 5,521 0,664 -16,121
1 11,96 1196 70,334 -10,794 35,227 -2,434 -0,206 -0,194 -151,175 5,765 -3,293
1 11,97 1197 69,947 -10,956 35,028 -0,676 -0,283 -0,348 175,793 -7,725 -15,428
1 11,98 1198 69,571 -11,131 34,727 -0,655 -0,305 -0,525 2,027 -2,239 -17,706
1 11,99 1199 69,752 -11,346 34,161 0,315 -0,376 -0,989 97,090 -7,108 -46,397
1 12,00 1200 69,537 -11,426 33,890 -0,374 -0,138 -0,472 -68,980 23,836 51,677
1 12,01 1201 69,147 -11,371 33,650 -0,681 0,096 -0,419 -30,690 23,378 5,265
1 12,02 1202 68,444 -11,276 33,488 -1,227 0,165 -0,282 -54,603 6,925 13,752
1 12,03 1203 67,545 -11,300 33,437 -1,569 -0,042 -0,089 -34,146 -20,689 19,281
1 12,04 1204 65,599 -11,924 33,427 -3,397 -1,088 -0,018 -182,786 -104,647 7,100
1 12,05 1205 64,909 -12,499 33,559 -1,204 -1,005 0,230 219,301 8,376 24,793
1 12,06 1206 64,561 -13,112 33,774 -0,608 -1,069 0,376 59,532 -6,437 14,663
1 12,07 1207 63,846 -13,673 33,788 -1,248 -0,979 0,024 -63,940 8,981 -35,217
1 12,08 1208 63,037 -14,166 33,689 -1,411 -0,860 -0,173 -16,375 11,951 -19,678
1 12,09 1209 62,096 -14,672 33,523 -1,642 -0,883 -0,290 -23,087 -2,375 -11,797
1 12,10 1210 61,211 -14,903 33,347 -1,546 -0,403 -0,308 9,644 48,033 -1,718
1 12,11 1211 60,192 -14,823 33,198 -1,778 0,139 -0,260 -23,248 54,162 4,781
1 12,12 1212 57,987 -13,732 32,899 -3,848 1,906 -0,521 -206,985 176,704 -26,084
1 12,13 1213 56,904 -13,062 32,792 -1,891 1,168 -0,187 195,768 -73,734 33,350
1 12,14 1214 56,063 -12,345 32,533 -1,467 1,251 -0,452 42,332 8,301 -26,439
1 12,15 1215 55,463 -11,738 32,139 -1,048 1,060 -0,688 41,964 -19,088 -23,682
1 12,16 1216 55,106 -11,316 31,611 -0,623 0,736 -0,921 42,486 -32,472 -23,256
1 12,17 1217 54,916 -11,087 31,017 -0,332 0,400 -1,037 29,093 -33,579 -11,625
1 12,18 1218 54,821 -11,316 30,120 -0,166 -0,399 -1,566 16,570 -79,891 -52,837
1 12,19 1219 54,964 -11,749 29,527 0,249 -0,756 -1,035 41,530 -35,730 53,057
1 12,20 1220 55,191 -12,049 28,816 0,397 -0,524 -1,240 14,728 23,247 -20,501
1 12,21 1221 55,036 -12,128 28,645 -0,269 -0,137 -0,299 -66,590 38,676 94,097
1 12,22 1222 54,716 -12,102 28,598 -0,558 0,046 -0,082 -28,905 18,291 21,728
1 12,23 1223 54,182 -11,994 28,570 -0,932 0,188 -0,050 -37,403 14,177 3,161
1 12,24 1224 53,528 -11,805 28,542 -1,141 0,331 -0,048 -20,894 14,361 0,172
1 12,25 1225 52,958 -11,603 28,543 -0,995 0,352 0,002 14,608 2,055 5,017
1 12,26 1226 51,748 -11,775 28,798 -2,111 -0,300 0,445 -111,610 -65,158 44,342
1 12,27 1227 51,133 -12,011 29,013 -1,074 -0,412 0,375 103,757 -11,194 -7,015
1 12,28 1228 50,826 -12,078 29,103 -0,536 -0,118 0,158 53,785 29,427 -21,702
1 12,29 1229 50,613 -12,192 29,367 -0,372 -0,198 0,460 16,426 -8,094 30,243
1 12,30 1230 50,487 -12,367 29,616 -0,220 -0,305 0,435 15,162 -10,681 -2,574
1 12,31 1231 50,290 -12,638 29,823 -0,344 -0,473 0,361 -12,357 -16,754 -7,373
1 12,32 1232 50,026 -12,938 29,979 -0,461 -0,524 0,272 -11,688 -5,069 -8,864
1 12,33 1233 49,342 -12,848 30,325 -1,193 0,156 0,604 -73,220 67,995 33,160
1 12,34 1234 48,990 -12,675 30,554 -0,614 0,301 0,400 57,855 14,496 -20,369
1 12,35 1235 48,733 -12,487 30,809 -0,449 0,329 0,444 16,479 2,802 4,386
1 12,36 1236 48,471 -12,016 30,764 -0,457 0,822 -0,077 -0,800 49,264 -52,125
1 12,37 1237 48,159 -11,602 30,552 -0,545 0,721 -0,371 -8,776 -10,074 -29,343
1 12,38 1238 47,787 -11,344 30,301 -0,648 0,451 -0,439 -10,269 -27,058 -6,802
1 12,39 1239 47,469 -11,189 30,064 -0,555 0,271 -0,413 9,263 -17,930 2,605
1 12,40 1240 49,127 -13,006 30,893 2,894 -3,172 1,446 344,902 -344,389 185,887
1 12,41 1241 49,780 -13,597 30,592 1,139 -1,031 -0,526 -175,467 214,111 -197,202
1 12,42 1242 50,253 -14,090 29,471 0,826 -0,860 -1,956 -31,328 17,152 -143,052
1 12,43 1243 50,541 -14,543 29,086 0,503 -0,790 -0,671 -32,279 6,975 128,503
1 12,44 1244 50,884 -14,844 28,910 0,599 -0,526 -0,308 9,576 26,402 36,305
1 12,45 1245 51,039 -14,610 28,770 0,270 0,409 -0,244 -32,868 93,496 6,405
1 12,46 1246 50,886 -13,655 28,564 -0,267 1,666 -0,358 -53,726 125,751 -11,429
1 12,47 1247 50,429 -12,291 28,178 -0,797 2,380 -0,674 -52,983 71,357 -31,553
1 12,48 1248 48,698 -10,040 27,622 -3,022 3,929 -0,971 -222,532 154,874 -29,671
1 12,49 1249 48,254 -9,521 27,028 -0,774 0,907 -1,038 224,805 -302,154 -6,707
1 12,50 1250 47,741 -9,614 26,799 -0,895 -0,163 -0,399 -12,038 -107,049 63,831
1 12,51 1251 47,185 -9,937 26,657 -0,972 -0,564 -0,247 -7,719 -40,088 15,226
1 12,52 1252 46,520 -10,443 26,562 -1,160 -0,883 -0,165 -18,864 -31,846 8,195
1 12,53 1253 45,853 -11,084 26,555 -1,164 -1,118 -0,013 -0,366 -23,544 15,227
1 12,54 1254 45,269 -11,788 26,769 -1,018 -1,229 0,374 14,597 -11,074 38,702
1 12,55 1255 43,548 -12,113 27,400 -3,005 -0,567 1,100 -198,700 66,159 72,634
1 12,56 1256 42,841 -11,888 27,811 -1,234 0,393 0,717 177,140 96,044 -38,339
1 12,57 1257 41,995 -11,642 28,274 -1,476 0,428 0,809 -24,254 3,522 9,225
1 12,58 1258 41,207 -11,484 28,641 -1,376 0,277 0,640 10,037 -15,184 -16,904
1 12,59 1259 40,499 -11,413 28,766 -1,235 0,124 0,217 14,050 -15,277 -42,311
1 12,60 1260 39,869 -11,431 28,632 -1,099 -0,031 -0,233 13,663 -15,480 -44,979
1 12,61 1261 39,276 -11,529 28,297 -1,036 -0,171 -0,585 6,318 -14,021 -35,218
1 12,62 1262 37,692 -11,798 27,756 -2,764 -0,470 -0,944 -172,852 -29,831 -35,942
1 12,63 1263 37,128 -11,793 27,313 -0,985 0,008 -0,773 177,884 47,729 17,091
1 12,64 1264 37,103 -11,856 26,523 -0,042 -0,110 -1,379 94,289 -11,756 -60,615
1 12,65 1265 36,666 -11,944 26,182 -0,763 -0,153 -0,594 -72,092 -4,354 78,524
1 12,66 1266 36,258 -11,959 25,966 -0,712 -0,027 -0,378 5,112 12,622 21,615
1 12,67 1267 35,768 -11,863 25,830 -0,855 0,169 -0,237 -14,256 19,562 14,107
1 12,68 1268 35,117 -11,710 25,772 -1,136 0,267 -0,101 -28,166 9,841 13,558
1 12,69 1269 34,335 -11,576 25,695 -1,366 0,234 -0,133 -22,928 -3,273 -3,183
1 12,70 1270 32,158 -11,693 25,577 -3,798 -0,205 -0,206 -243,242 -43,949 -7,293
1 12,71 1271 31,748 -11,899 25,070 -0,716 -0,358 -0,885 308,188 -15,289 -67,878
1 12,72 1272 30,949 -12,216 24,745 -1,395 -0,555 -0,568 -67,895 -19,634 31,722
1 12,73 1273 30,169 -12,574 24,401 -1,360 -0,623 -0,601 3,498 -6,895 -3,280
1 12,74 1274 29,417 -12,852 24,083 -1,312 -0,486 -0,554 4,796 13,725 4,699
1 12,75 1275 28,698 -12,937 23,929 -1,255 -0,149 -0,270 5,735 33,769 28,383
1 12,76 1276 27,212 -12,618 24,037 -2,595 0,557 0,189 -133,965 70,530 45,893
1 12,77 1277 27,379 -12,540 24,069 0,291 0,137 0,056 288,591 -41,963 -13,313
1 12,78 1278 25,958 -11,798 24,261 -2,479 1,294 0,335 -277,042 115,735 27,886
1 12,79 1279 25,384 -11,258 24,248 -1,002 0,943 -0,023 147,698 -35,174 -35,832
1 12,80 1280 24,840 -10,886 24,059 -0,951 0,649 -0,329 5,136 -29,413 -30,583
1 12,81 1281 24,416 -10,575 23,613 -0,740 0,543 -0,779 21,117 -10,571 -45,008
1 12,82 1282 24,022 -10,228 22,984 -0,687 0,606 -1,097 5,222 6,318 -31,741
1 12,83 1283 23,832 -10,006 22,240 -0,332 0,387 -1,300 35,484 -21,879 -20,315
1 12,84 1284 24,362 -9,464 21,211 0,926 0,946 -1,795 125,857 55,870 -49,492
1 12,85 1285 25,464 -8,838 20,646 1,924 1,092 -0,986 99,762 14,596 80,863
1 12,86 1286 26,606 -7,827 20,091 1,993 1,765 -0,969 6,884 67,314 1,752
1 12,87 1287 27,657 -6,830 19,920 1,834 1,740 -0,299 -15,860 -2,472 67,015
1 12,88 1288 28,274 -5,808 19,826 1,078 1,783 -0,165 -75,585 4,229 13,381
1 12,89 1289 28,646 -5,009 19,782 0,648 1,395 -0,076 -43,033 -38,802 8,821
1 12,90 1290 28,591 -4,418 19,729 -0,095 1,031 -0,093 -74,236 -36,338 -1,672
1 12,91 1291 28,289 -4,165 19,571 -0,527 0,442 -0,276 -43,272 -58,889 -18,238
1 12,92 1292 27,586 -4,247 19,431 -1,228 -0,143 -0,244 -70,075 -58,524 3,124
1 12,93 1293 27,628 -4,378 19,196 0,074 -0,229 -0,409 130,203 -8,567 -16,451
1 12,94 1294 27,273 -4,212 19,155 -0,619 0,290 -0,072 -69,329 51,816 33,718
1 12,95 1295 26,716 -4,038 19,272 -0,972 0,302 0,204 -35,270 1,254 27,561
1 12,96 1296 25,464 -3,691 19,550 -2,185 0,607 0,484 -121,290 30,466 28,019
1 12,97 1297 23,492 -3,300 19,820 -3,442 0,683 0,472 -125,696 7,584 -1,206
1 12,98 1298 20,948 -3,024 20,076 -4,440 0,481 0,446 -99,845 -20,172 -2,612
1 12,99 1299 15,345 -3,584 20,443 -9,780 -0,977 0,641 -533,972 -145,838 19,461
1 13,00 1300 14,213 -4,874 19,954 -1,976 -2,252 -0,853 780,440 -127,438 -149,309
1 13,01 1301 14,166 -5,853 19,535 -0,081 -1,708 -0,731 189,467 54,358 12,163
1 13,02 1302 14,274 -6,122 19,220 0,188 -0,470 -0,551 26,900 123,865 18,013
1 13,03 1303 14,221 -5,828 19,200 -0,093 0,514 -0,035 -28,104 98,346 51,554
1 13,04 1304 14,047 -5,060 19,664 -0,303 1,340 0,811 -21,023 82,590 84,637
1 13,05 1305 14,095 -4,305 20,163 0,084 1,317 0,870 38,774 -2,300 5,906
1 13,06 1306 14,722 -2,969 20,869 1,093 2,333 1,232 100,879 101,578 36,210
1 13,07 1307 15,332 -2,747 21,185 1,064 0,387 0,551 -2,893 -194,536 -68,119
1 13,08 1308 16,037 -2,847 21,224 1,232 -0,175 0,069 16,728 -56,245 -48,200
1 13,09 1309 16,656 -3,052 20,780 1,080 -0,356 -0,775 -15,156 -18,111 -84,407
1 13,10 1310 16,922 -3,135 20,349 0,464 -0,145 -0,752 -61,618 21,157 2,271
1 13,11 1311 17,027 -3,126 20,104 0,184 0,015 -0,427 -28,005 15,931 32,481
1 13,12 1312 17,182 -2,962 20,067 0,271 0,287 -0,066 8,684 27,259 36,184
1 13,13 1313 17,424 -2,636 20,194 0,422 0,569 0,223 15,121 28,210 28,844
1 13,14 1314 18,338 -2,072 20,355 1,595 0,984 0,281 117,280 41,499 5,773
1 13,15 1315 19,052 -1,730 20,677 1,248 0,596 0,563 -34,713 -38,783 28,200
1 13,16 1316 19,452 -1,348 20,941 0,697 0,667 0,460 -55,095 7,082 -10,291
1 13,17 1317 19,633 -1,062 21,270 0,317 0,499 0,575 -37,971 -16,794 11,569
1 13,18 1318 19,703 -0,833 21,658 0,121 0,400 0,676 -19,575 -9,946 10,076
1 13,19 1319 19,636 -0,598 22,083 -0,117 0,409 0,742 -23,817 0,884 6,560
1 13,20 1320 19,495 -0,308 22,544 -0,244 0,507 0,805 -12,737 9,838 6,351
1 13,21 1321 18,590 0,215 23,223 -1,581 0,912 1,185 -133,674 40,483 37,971
1 13,22 1322 18,770 0,281 23,820 0,315 0,116 1,042 189,639 -79,552 -14,336
1 13,23 1323 18,661 0,076 23,835 -0,190 -0,358 0,027 -50,572 -47,466 -101,500
1 13,24 1324 18,704 -0,304 23,580 0,075 -0,664 -0,445 26,510 -30,551 -47,123
1 13,25 1325 18,930 -0,896 23,202 0,396 -1,033 -0,661 32,090 -36,901 -21,600
1 13,26 1326 19,216 -1,472 22,747 0,499 -1,006 -0,793 10,336 2,710 -13,247
1 13,27 1327 19,397 -1,970 22,325 0,315 -0,869 -0,737 -18,351 13,691 5,608
1 13,28 1328 19,097 -2,983 21,525 -0,524 -1,769 -1,396 -83,920 -89,970 -65,923
1 13,29 1329 19,037 -3,780 21,079 -0,104 -1,390 -0,778 41,999 37,851 61,848
1 13,30 1330 18,628 -4,417 20,607 -0,715 -1,112 -0,823 -61,143 27,783 -4,527
1 13,31 1331 18,197 -4,955 20,189 -0,752 -0,939 -0,730 -3,642 17,291 9,321
1 13,32 1332 17,657 -5,268 19,823 -0,942 -0,546 -0,639 -19,007 39,295 9,069
1 13,33 1333 17,025 -5,285 19,451 -1,103 -0,030 -0,650 -16,152 51,665 -1,051
1 13,34 1334 16,344 -5,094 19,159 -1,189 0,334 -0,510 -8,559 36,375 13,987
1 13,35 1335 15,666 -4,846 18,962 -1,183 0,432 -0,344 0,598 9,838 16,618
1 13,36 1336 14,694 -4,726 18,670 -1,697 0,210 -0,509 -51,372 -22,266 -16,584
1 13,37 1337 14,464 -4,922 18,670 -0,402 -0,342 0,001 129,463 -55,215 51,064
1 13,38 1338 14,329 -5,116 18,799 -0,236 -0,338 0,224 16,625 0,419 22,298
1 13,39 1339 14,286 -5,308 19,014 -0,075 -0,336 0,375 16,103 0,177 15,123
1 13,40 1340 14,323 -5,494 19,343 0,064 -0,325 0,574 13,863 1,187 19,849
1 13,41 1341 14,408 -5,694 19,663 0,148 -0,349 0,560 8,433 -2,436 -1,425
1 13,42 1342 14,598 -5,966 19,939 0,332 -0,474 0,481 18,416 -12,534 -7,816
1 13,43 1343 15,440 -6,314 20,526 1,469 -0,608 1,023 113,696 -13,385 54,192
1 13,44 1344 15,850 -6,069 20,991 0,716 0,429 0,812 -75,315 103,700 -21,177
1 13,45 1345 16,351 -5,859 21,313 0,873 0,366 0,563 15,685 -6,278 -24,850
1 13,46 1346 16,824 -5,697 21,602 0,826 0,282 0,504 -4,673 -8,387 -5,951
1 13,47 1347 17,240 -5,642 21,788 0,725 0,097 0,325 -10,124 -18,559 -17,906
1 13,48 1348 17,616 -5,713 21,897 0,656 -0,124 0,190 -6,874 -22,047 -13,415
1 13,49 1349 17,939 -5,843 21,918 0,564 -0,228 0,037 -9,250 -10,396 -15,320
1 13,50 1350 18,797 -6,261 21,934 1,498 -0,729 0,028 93,439 -50,135 -0,921
1 13,51 1351 18,835 -6,579 21,710 0,066 -0,555 -0,391 -143,212 17,391 -41,846
1 13,52 1352 19,268 -6,797 21,683 0,755 -0,382 -0,047 68,887 17,362 34,372
1 13,53 1353 19,850 -6,927 21,733 1,016 -0,227 0,087 26,127 15,476 13,342
1 13,54 1354 20,650 -6,929 21,823 1,396 -0,002 0,157 38,014 22,452 7,010
1 13,55 1355 21,609 -6,821 21,929 1,674 0,188 0,186 27,705 19,028 2,924
1 13,56 1356 22,703 -6,717 22,083 1,909 0,181 0,268 23,584 -0,666 8,194
1 13,57 1357 25,533 -6,411 22,648 4,939 0,535 0,987 302,962 35,314 71,915
1 13,58 1358 27,020 -6,295 22,747 2,595 0,202 0,171 -234,401 -33,240 -81,565
1 13,59 1359 28,232 -6,130 22,447 2,117 0,287 -0,524 -47,828 8,506 -69,505
1 13,60 1360 29,577 -5,776 22,297 2,346 0,619 -0,262 22,937 33,197 26,206
1 13,61 1361 30,941 -5,536 22,089 2,382 0,418 -0,362 3,564 -20,068 -10,042
1 13,62 1362 32,402 -5,472 21,783 2,549 0,111 -0,535 16,745 -30,762 -17,339
1 13,63 1363 33,867 -5,583 21,486 2,558 -0,193 -0,517 0,921 -30,432 1,807
1 13,64 1364 36,872 -5,628 20,905 5,244 -0,079 -1,013 268,603 11,462 -49,608
1 13,65 1365 38,140 -5,712 20,765 2,213 -0,145 -0,246 -303,142 -6,646 76,755
1 13,66 1366 38,688 -6,238 21,176 0,956 -0,919 0,718 -125,647 -77,396 96,429
1 13,67 1367 39,613 -6,392 21,469 1,614 -0,268 0,512 65,792 65,171 -20,672
1 13,68 1368 40,549 -6,355 21,790 1,633 0,064 0,560 1,820 33,109 4,842
1 13,69 1369 41,633 -6,267 21,998 1,892 0,155 0,363 25,911 9,138 -19,714
1 13,70 1370 42,981 -6,247 22,016 2,354 0,035 0,030 46,199 -11,980 -33,255
1 13,71 1371 44,484 -6,206 21,878 2,623 0,071 -0,241 26,961 3,597 -27,124
1 13,72 1372 48,242 -5,846 21,323 6,559 0,628 -0,969 393,567 55,655 -72,810
1 13,73 1373 48,961 -6,649 21,146 1,255 -1,402 -0,308 -530,371 -202,953 66,050
1 13,74 1374 50,123 -7,376 21,184 2,027 -1,269 0,067 77,187 13,303 37,511
1 13,75 1375 51,096 -8,343 21,419 1,699 -1,687 0,410 -32,808 -41,799 34,361
1 13,76 1376 51,933 -9,432 21,887 1,460 -1,900 0,817 -23,879 -21,307 40,637
1 13,77 1377 52,688 -10,532 22,448 1,317 -1,921 0,978 -14,278 -2,128 16,131
1 13,78 1378 53,411 -11,447 23,037 1,262 -1,596 1,029 -5,505 32,503 5,138
1 13,79 1379 56,072 -12,788 23,480 4,644 -2,341 0,773 338,128 -74,462 -25,662
1 13,80 1380 56,118 -12,570 25,148 0,080 0,380 2,911 -456,405 272,054 213,783
1 13,81 1381 57,350 -12,816 25,910 2,151 -0,428 1,330 207,133 -80,750 -158,095
1 13,82 1382 58,656 -13,026 26,613 2,280 -0,367 1,227 12,880 6,031 -10,265
1 13,83 1383 60,001 -13,191 27,219 2,347 -0,288 1,059 6,721 7,939 -16,796
1 13,84 1384 61,376 -13,370 27,759 2,400 -0,313 0,942 5,285 -2,480 -11,664
1 13,85 1385 62,794 -13,422 28,393 2,475 -0,090 1,106 7,511 22,262 16,315
1 13,86 1386 63,880 -13,546 29,109 1,896 -0,216 1,249 -57,880 -12,592 14,392
1 13,87 1387 66,893 -14,018 30,573 5,258 -0,823 2,555 336,149 -60,698 130,551
1 13,88 1388 67,845 -12,957 31,286 1,662 1,852 1,246 -359,609 267,511 -130,900
1 13,89 1389 69,455 -12,585 31,849 2,810 0,649 0,982 114,794 -120,280 -26,413
1 13,90 1390 71,475 -12,438 32,481 3,526 0,256 1,103 71,641 -39,337 12,145
1 13,91 1391 73,887 -12,308 33,101 4,210 0,228 1,082 68,411 -2,812 -2,117
1 13,92 1392 76,326 -12,128 33,652 4,257 0,313 0,961 4,734 8,577 -12,088
1 13,93 1393 78,595 -11,860 34,163 3,960 0,468 0,892 -29,786 15,441 -6,877
1 13,94 1394 82,782 -11,299 34,918 7,308 0,979 1,317 334,830 51,067 42,483
1 13,95 1395 84,314 -10,848 35,624 2,674 0,788 1,232 -463,420 -19,038 -8,525
1 13,96 1396 72,462 -9,125 34,303 -20,685 3,006 -2,305 -2335,844 221,813 -353,730
1 13,97 1397 74,006 -8,339 34,291 2,694 1,373 -0,021 2337,861 -163,314 228,431
1 13,98 1398 77,337 -6,912 34,719 5,815 2,489 0,747 312,097 111,593 76,791
1 13,99 1399 78,708 -6,375 35,097 2,393 0,937 0,660 -342,189 -155,164 -8,680
1 14,00 1400 91,651 -8,260 35,605 22,590 -3,290 0,886 2019,696 -422,704 22,546
1 14,01 1401 94,768 -7,227 34,022 5,440 1,803 -2,763 -1714,958 509,229 -364,832
1 14,02 1402 95,420 -6,012 33,149 1,138 2,122 -1,524 -430,225 31,895 123,908
1 14,03 1403 96,331 -5,354 32,538 1,590 1,148 -1,066 45,159 -97,374 45,791
1 14,04 1404 97,130 -4,672 32,198 1,394 1,189 -0,594 -19,584 4,144 47,126
1 14,05 1405 97,884 -4,115 32,095 1,316 0,973 -0,179 -7,726 -21,654 41,585
1 14,06 1406 98,663 -3,692 32,307 1,360 0,738 0,370 4,331 -23,479 54,858
1 14,07 1407 99,445 -3,409 32,792 1,364 0,494 0,846 0,449 -24,419 47,577
1 14,08 1408 101,201 -3,411 33,981 3,065 -0,004 2,075 170,071 -49,753 122,970
1 14,09 1409 102,215 -3,339 34,698 1,769 0,126 1,250 -129,606 13,017 -82,510
1 14,10 1410 103,229 -3,194 35,704 1,771 0,253 1,756 0,182 12,678 50,545
1 14,11 1411 104,339 -3,165 36,062 1,938 0,050 0,625 16,716 -20,286 -113,056
1 14,12 1412 105,608 -3,230 36,213 2,214 -0,113 0,264 27,577 -16,383 -36,119
1 14,13 1413 106,718 -3,285 36,270 1,937 -0,097 0,099 -27,673 1,686 -16,470
1 14,14 1414 107,719 -3,298 36,376 1,748 -0,022 0,185 -18,847 7,460 8,593
1 14,15 1415 108,684 -3,372 36,618 1,683 -0,129 0,421 -6,571 -10,688 23,600
1 14,16 1416 110,227 -3,866 37,244 2,694 -0,862 1,092 101,099 -73,303 67,120
1 14,17 1417 110,637 -4,192 37,578 0,715 -0,569 0,583 -197,873 29,281 -50,904
1 14,18 1418 110,785 -4,566 37,849 0,259 -0,653 0,474 -45,595 -8,426 -10,991
1 14,19 1419 110,726 -4,866 37,979 -0,103 -0,523 0,226 -36,259 13,042 -24,718
1 14,20 1420 110,458 -4,903 37,917 -0,468 -0,065 -0,108 -36,442 45,842 -33,416
1 14,21 1421 110,085 -4,883 37,804 -0,651 0,035 -0,197 -18,296 9,924 -8,906
1 14,22 1422 109,690 -4,797 37,750 -0,689 0,151 -0,095 -3,836 11,586 10,194
1 14,23 1423 109,035 -4,423 37,663 -1,144 0,653 -0,151 -45,457 50,205 -5,627
1 14,24 1424 108,318 -4,204 37,749 -1,250 0,381 0,149 -10,602 -27,167 29,990
1 14,25 1425 107,868 -3,959 37,878 -0,786 0,428 0,226 46,432 4,712 7,755
1 14,26 1426 107,501 -3,724 38,137 -0,642 0,411 0,452 14,367 -1,718 22,618
1 14,27 1427 107,189 -3,497 38,453 -0,544 0,396 0,551 9,768 -1,495 9,886
1 14,28 1428 106,949 -3,347 38,788 -0,418 0,261 0,584 12,641 -13,496 3,293
1 14,29 1429 106,771 -3,286 39,022 -0,312 0,106 0,408 10,581 -15,455 -17,672
1 14,30 1430 106,685 -3,297 39,109 -0,150 -0,018 0,152 16,150 -12,462 -25,531
1 14,31 1431 106,656 -3,324 38,769 -0,050 -0,049 -0,593 10,068 -3,032 -74,533
1 14,32 1432 106,657 -3,328 38,371 0,002 -0,005 -0,695 5,136 4,309 -10,139
1 14,33 1433 106,662 -3,323 37,908 0,009 0,008 -0,809 0,775 1,369 -11,429
1 14,34 1434 106,683 -3,316 37,461 0,036 0,012 -0,780 2,699 0,407 2,891
1 14,35 1435 106,713 -3,278 37,116 0,052 0,066 -0,602 1,590 5,397 17,809
1 14,36 1436 106,724 -3,198 36,952 0,019 0,139 -0,286 -3,290 7,259 31,558
1 14,37 1437 106,687 -3,169 36,947 -0,065 0,052 -0,009 -8,392 -8,729 27,712
1 14,38 1438 106,293 -3,277 37,476 -0,688 -0,189 0,924 -62,370 -24,018 93,308
1 14,39 1439 106,365 -3,242 37,498 0,126 0,061 0,038 81,432 24,907 -88,568
1 14,40 1440 106,274 -3,284 37,684 -0,159 -0,074 0,325 -28,486 -13,410 28,653
1 14,41 1441 106,247 -3,326 37,772 -0,047 -0,073 0,153 11,163 0,101 -17,136
1 14,42 1442 106,273 -3,345 37,754 0,046 -0,034 -0,031 9,294 3,820 -18,454
1 14,43 1443 106,342 -3,353 37,719 0,120 -0,013 -0,062 7,434 2,183 -3,055
1 14,44 1444 106,435 -3,344 37,733 0,163 0,015 0,025 4,256 2,719 8,618
1 14,45 1445 106,501 -3,333 38,059 0,115 0,020 0,569 -4,731 0,508 54,432
1 14,46 1446 106,734 -3,435 37,994 0,407 -0,177 -0,114 29,144 -19,708 -68,280
1 14,47 1447 106,784 -3,516 38,177 0,088 -0,143 0,320 -31,904 3,464 43,351
1 14,48 1448 106,769 -3,598 38,434 -0,027 -0,142 0,449 -11,485 0,106 12,939
1 14,49 1449 106,710 -3,701 38,754 -0,103 -0,180 0,559 -7,625 -3,830 10,984
1 14,50 1450 106,689 -3,830 39,019 -0,036 -0,226 0,463 6,728 -4,649 -9,630
1 14,51 1451 106,729 -3,976 39,158 0,070 -0,254 0,242 10,629 -2,728 -22,010
1 14,52 1452 106,795 -4,201 38,957 0,115 -0,394 -0,350 4,475 -13,996 -59,283
1 14,53 1453 106,845 -4,426 38,400 0,087 -0,393 -0,973 -2,788 0,097 -62,274
1 14,54 1454 106,920 -4,640 37,972 0,131 -0,372 -0,747 4,429 2,054 22,603
1 14,55 1455 106,971 -4,904 37,587 0,089 -0,462 -0,671 -4,243 -8,982 7,566
1 14,56 1456 107,041 -5,202 37,294 0,122 -0,519 -0,511 3,290 -5,732 16,038
1 14,57 1457 107,095 -5,551 37,107 0,095 -0,609 -0,328 -2,673 -8,988 18,353
1 14,58 1458 107,132 -5,896 36,942 0,064 -0,603 -0,287 -3,062 0,657 4,048
1 14,59 1459 107,126 -6,224 36,830 -0,011 -0,572 -0,196 -7,573 3,051 9,085
1 14,60 1460 106,978 -6,765 36,506 -0,259 -0,945 -0,565 -24,743 -37,267 -36,926
1 14,61 1461 106,817 -6,940 36,292 -0,280 -0,304 -0,373 -2,137 64,052 19,253
1 14,62 1462 106,640 -7,045 36,059 -0,309 -0,185 -0,406 -2,849 11,973 -3,355
1 14,63 1463 106,440 -7,150 35,757 -0,350 -0,183 -0,528 -4,128 0,188 -12,128
1 14,64 1464 106,275 -7,263 35,425 -0,288 -0,196 -0,579 6,139 -1,366 -5,137
1 14,65 1465 106,123 -7,441 35,050 -0,264 -0,311 -0,655 2,421 -11,428 -7,572
1 14,66 1466 106,008 -7,697 34,677 -0,201 -0,447 -0,651 6,278 -13,660 0,432
1 14,67 1467 105,657 -8,102 34,434 -0,613 -0,706 -0,423 -41,169 -25,925 22,716
1 14,68 1468 105,731 -8,549 33,963 0,129 -0,780 -0,824 74,254 -7,372 -40,015
1 14,69 1469 105,603 -8,845 33,847 -0,224 -0,518 -0,201 -35,290 26,236 62,266
1 14,70 1470 105,438 -9,097 33,746 -0,287 -0,439 -0,177 -6,398 7,855 2,356
1 14,71 1471 105,247 -9,276 33,671 -0,333 -0,313 -0,130 -4,506 12,638 4,715
1 14,72 1472 105,025 -9,424 33,598 -0,388 -0,258 -0,128 -5,568 5,493 0,229
1 14,73 1473 104,764 -9,557 33,522 -0,456 -0,232 -0,132 -6,807 2,574 -0,457
1 14,74 1474 104,494 -9,696 33,425 -0,470 -0,243 -0,169 -1,410 -1,082 -3,653
1 14,75 1475 103,982 -10,141 33,260 -0,893 -0,776 -0,288 -42,284 -53,307 -11,881
1 14,76 1476 103,645 -10,493 33,134 -0,589 -0,614 -0,221 30,447 16,238 6,665
1 14,77 1477 103,220 -10,891 32,981 -0,741 -0,696 -0,266 -15,240 -8,201 -4,481
1 14,78 1478 102,706 -11,287 32,821 -0,898 -0,691 -0,280 -15,708 0,452 -1,429
1 14,79 1479 102,015 -11,634 32,601 -1,206 -0,604 -0,384 -30,761 8,681 -10,401
1 14,80 1480 101,167 -11,933 32,320 -1,480 -0,523 -0,490 -27,418 8,108 -10,547
1 14,81 1481 100,264 -12,196 31,940 -1,575 -0,458 -0,663 -9,509 6,578 -17,287
1 14,82 1482 98,566 -12,773 30,983 -2,964 -1,008 -1,671 -138,849 -55,063 -100,864
1 14,83 1483 97,975 -13,080 30,443 -1,032 -0,536 -0,942 193,120 47,240 72,973
1 14,84 1484 97,495 -13,471 29,829 -0,837 -0,682 -1,072 19,494 -14,615 -13,055
1 14,85 1485 97,036 -13,862 29,114 -0,801 -0,683 -1,248 3,657 -0,096 -17,550
1 14,86 1486 96,578 -14,304 28,332 -0,800 -0,771 -1,366 0,091 -8,791 -11,799
1 14,87 1487 96,143 -14,688 27,584 -0,759 -0,670 -1,305 4,069 10,099 6,059
1 14,88 1488 95,615 -15,009 26,922 -0,920 -0,561 -1,156 -16,088 10,897 14,883
1 14,89 1489 93,586 -15,156 26,512 -3,542 -0,257 -0,715 -262,150 30,433 44,147
1 14,90 1490 93,334 -15,472 25,710 -0,440 -0,552 -1,400 310,159 -29,593 -68,531
1 14,91 1491 92,397 -15,444 25,307 -1,635 0,049 -0,704 -119,454 60,152 69,585
1 14,92 1492 91,432 -15,369 24,788 -1,684 0,132 -0,906 -4,935 8,273 -20,201
1 14,93 1493 90,460 -15,204 24,139 -1,697 0,288 -1,132 -1,290 15,626 -22,635
1 14,94 1494 89,450 -14,937 23,410 -1,764 0,466 -1,272 -6,676 17,795 -13,984
1 14,95 1495 88,388 -14,639 22,654 -1,853 0,519 -1,319 -8,917 5,337 -4,632
1 14,96 1496 86,105 -14,100 21,068 -3,986 0,942 -2,768 -213,283 42,230 -144,946
1 14,97 1497 84,921 -13,978 20,464 -2,065 0,212 -1,055 192,080 -72,978 171,345
1 14,98 1498 83,763 -14,031 19,949 -2,021 -0,092 -0,899 4,357 -30,377 15,610
1 14,99 1499 82,443 -14,128 19,533 -2,304 -0,170 -0,727 -28,270 -7,776 17,123
1 15,00 1500 81,111 -14,316 19,203 -2,325 -0,329 -0,575 -2,090 -15,928 15,191
1 15,01 1501 79,755 -14,463 18,922 -2,367 -0,257 -0,490 -4,175 7,222 8,540
1 15,02 1502 78,302 -14,469 18,601 -2,536 -0,009 -0,560 -16,925 24,724 -6,993
1 15,03 1503 76,877 -14,275 18,294 -2,487 0,338 -0,537 4,870 34,708 2,308
1 15,04 1504 73,906 -13,812 17,821 -5,186 0,809 -0,826 -269,926 47,160 -28,888
1 15,05 1505 72,355 -13,790 17,861 -2,706 0,038 0,070 248,028 -77,107 89,619
1 15,06 1506 70,958 -13,850 18,025 -2,439 -0,105 0,287 26,748 -14,293 21,666
1 15,07 1507 69,598 -13,790 18,165 -2,373 0,104 0,244 6,542 20,837 -4,336
1 15,08 1508 68,276 -13,471 18,286 -2,308 0,558 0,211 6,574 45,405 -3,300
1 15,09 1509 67,301 -12,925 18,566 -1,702 0,953 0,489 60,564 39,497 27,791
1 15,10 1510 66,535 -12,292 18,706 -1,337 1,105 0,244 36,465 15,270 -24,493
1 15,11 1511 65,480 -10,718 18,811 -1,840 2,746 0,185 -50,317 164,096 -5,890
1 15,12 1512 65,585 -10,286 19,156 0,183 0,754 0,601 202,334 -199,197 41,624
1 15,13 1513 66,160 -10,350 19,793 1,004 -0,111 1,112 82,077 -86,539 51,081
1 15,14 1514 66,819 -10,561 20,535 1,150 -0,369 1,296 14,579 -25,759 18,387
1 15,15 1515 67,328 -10,837 21,202 0,889 -0,481 1,164 -26,027 -11,226 -13,165
1 15,16 1516 67,643 -11,378 21,800 0,549 -0,945 1,043 -34,021 -46,381 -12,148
1 15,17 1517 67,845 -12,163 22,428 0,354 -1,371 1,096 -19,537 -42,623 5,346
1 15,18 1518 67,898 -12,862 23,006 0,092 -1,219 1,009 -26,199 15,169 -8,679
1 15,19 1519 66,724 -12,582 23,927 -2,050 0,488 1,608 -214,123 170,771 59,843
1 15,20 1520 65,901 -12,118 24,172 -1,435 0,810 0,426 61,436 32,159 -118,134
1 15,21 1521 65,154 -11,817 24,336 -1,305 0,526 0,287 13,043 -28,435 -13,968
1 15,22 1522 64,484 -11,707 24,246 -1,169 0,192 -0,157 13,574 -33,398 -44,404
1 15,23 1523 63,724 -11,707 23,913 -1,327 0,000 -0,581 -15,758 -19,138 -42,406
1 15,24 1524 63,034 -11,632 23,297 -1,204 0,131 -1,074 12,265 13,097 -49,309
1 15,25 1525 62,317 -11,428 22,442 -1,252 0,356 -1,492 -4,784 22,468 -41,747
1 15,26 1526 60,410 -10,728 20,244 -3,329 1,221 -3,837 -207,672 86,508 -234,536
1 15,27 1527 59,233 -10,270 19,177 -2,053 0,800 -1,862 127,549 -42,087 197,573
1 15,28 1528 57,815 -9,773 18,236 -2,476 0,867 -1,642 -42,292 6,733 21,960
1 15,29 1529 56,274 -9,181 17,499 -2,689 1,033 -1,286 -21,272 16,544 35,621
1 15,30 1530 54,816 -8,544 17,017 -2,546 1,112 -0,842 14,260 7,879 44,401
1 15,31 1531 53,403 -7,771 16,821 -2,465 1,349 -0,342 8,135 23,736 49,948
1 15,32 1532 51,948 -7,050 16,874 -2,541 1,259 0,092 -7,627 -9,024 43,421
1 15,33 1533 49,093 -5,930 17,409 -4,982 1,954 0,934 -244,061 69,499 84,253
1 15,34 1534 47,892 -5,666 17,782 -2,096 0,462 0,651 288,545 -149,191 -28,356
1 15,35 1535 46,999 -5,609 18,172 -1,559 0,099 0,681 53,698 -36,256 3,025
1 15,36 1536 46,170 -5,431 18,407 -1,447 0,310 0,409 11,243 21,046 -27,194
1 15,37 1537 45,261 -5,148 18,415 -1,586 0,495 0,015 -13,909 18,520 -39,422
1 15,38 1538 44,325 -4,921 18,195 -1,634 0,396 -0,384 -4,849 -9,874 -39,934
1 15,39 1539 43,392 -4,785 17,821 -1,628 0,237 -0,654 0,638 -15,923 -26,919
1 15,40 1540 41,620 -4,434 16,785 -3,094 0,613 -1,808 -146,561 37,612 -115,401
1 15,41 1541 40,738 -4,081 16,231 -1,538 0,615 -0,967 155,514 0,181 84,066
1 15,42 1542 39,793 -3,569 15,794 -1,649 0,894 -0,763 -11,071 27,886 20,355
1 15,43 1543 38,772 -2,877 15,564 -1,783 1,208 -0,401 -13,366 31,467 36,226
1 15,44 1544 37,655 -2,028 15,533 -1,950 1,481 -0,054 -16,757 27,249 34,679
1 15,45 1545 36,583 -1,239 15,608 -1,871 1,377 0,131 7,950 -10,398 18,512
1 15,46 1546 35,314 -0,137 15,681 -2,214 1,923 0,127 -34,315 54,603 -0,343
1 15,47 1547 34,008 1,178 15,953 -2,279 2,296 0,475 -6,526 37,310 34,734
1 15,48 1548 32,411 3,184 16,933 -2,788 3,501 1,710 -50,861 120,487 123,545
1 15,49 1549 32,056 3,821 17,133 -0,619 1,111 0,349 216,841 -239,023 -136,072
1 15,50 1550 31,754 4,318 17,101 -0,526 0,869 -0,055 9,300 -24,194 -40,482
1 15,51 1551 31,516 4,714 16,787 -0,417 0,690 -0,549 10,989 -17,839 -49,352
1 15,52 1552 31,364 4,993 16,232 -0,265 0,487 -0,969 15,107 -20,316 -41,970
1 15,53 1553 31,233 5,133 15,541 -0,228 0,243 -1,206 3,706 -24,394 -23,768
1 15,54 1554 31,070 5,099 14,841 -0,283 -0,059 -1,222 -5,472 -30,205 -1,530
1 15,55 1555 30,507 4,642 13,560 -0,984 -0,798 -2,235 -70,052 -73,935 -101,317
1 15,56 1556 30,129 4,257 12,965 -0,660 -0,671 -1,039 32,345 12,659 119,530
1 15,57 1557 29,721 3,668 12,459 -0,711 -1,027 -0,883 -5,080 -35,599 15,682
1 15,58 1558 29,212 2,939 12,067 -0,888 -1,273 -0,684 -17,689 -24,538 19,876
1 15,59 1559 28,581 2,207 11,842 -1,102 -1,278 -0,393 -21,406 -0,546 29,086
1 15,60 1560 27,879 1,479 11,766 -1,225 -1,269 -0,133 -12,304 0,942 25,971
1 15,61 1561 27,127 0,736 11,834 -1,313 -1,298 0,119 -8,848 -2,946 25,219
1 15,62 1562 26,014 -0,076 11,558 -1,942 -1,416 -0,481 -62,823 -11,777 -59,970
1 15,63 1563 23,717 -0,862 12,160 -4,009 -1,372 1,051 -206,724 4,456 153,147
1 15,64 1564 22,627 -1,506 12,287 -1,903 -1,125 0,222 210,636 24,672 -82,914
1 15,65 1565 22,051 -2,383 12,384 -1,005 -1,530 0,169 89,725 -40,495 -5,218
1 15,66 1566 21,875 -3,153 12,398 -0,306 -1,344 0,023 69,888 18,568 -14,630
1 15,67 1567 21,764 -3,575 12,395 -0,194 -0,737 -0,004 11,202 60,702 -2,728
1 15,68 1568 21,729 -3,666 12,474 -0,061 -0,159 0,137 13,359 57,807 14,107
1 15,69 1569 21,739 -3,556 12,650 0,017 0,192 0,308 7,750 35,051 17,086
1 15,70 1570 21,872 -2,924 13,282 0,232 1,104 1,104 21,554 91,207 79,606
1 15,71 1571 21,947 -2,477 13,777 0,132 0,780 0,863 -10,048 -32,362 -24,095
1 15,72 1572 22,023 -2,033 14,294 0,133 0,775 0,903 0,083 -0,484 4,047
1 15,73 1573 22,084 -1,628 14,803 0,107 0,707 0,888 -2,527 -6,860 -1,559
1 15,74 1574 22,125 -1,314 15,295 0,071 0,548 0,860 -3,623 -15,804 -2,805
1 15,75 1575 22,141 -1,107 15,718 0,028 0,362 0,739 -4,303 -18,692 -12,099
1 15,76 1576 22,138 -1,004 16,068 -0,005 0,180 0,610 -3,276 -18,154 -12,860
1 15,77 1577 22,130 -1,142 16,567 -0,015 -0,242 0,871 -1,057 -42,208 26,077
1 15,78 1578 22,137 -1,342 16,720 0,012 -0,349 0,267 2,767 -10,668 -60,377
1 15,79 1579 22,110 -1,547 16,786 -0,047 -0,357 0,115 -5,975 -0,857 -15,241
1 15,80 1580 21,899 -1,512 16,702 -0,367 0,061 -0,145 -32,006 41,843 -25,997
1 15,81 1581 21,623 -1,600 16,614 -0,481 -0,154 -0,155 -11,364 -21,491 -0,922
1 15,82 1582 21,569 -1,766 16,412 -0,095 -0,289 -0,353 38,566 -13,558 -19,832
1 15,83 1583 21,636 -1,853 16,138 0,118 -0,151 -0,477 21,321 13,789 -12,430
1 15,84 1584 21,685 -0,978 15,732 0,086 1,527 -0,710 -3,148 167,868 -23,237
1 15,85 1585 21,811 -0,184 15,547 0,219 1,384 -0,322 13,231 -14,280 38,738
1 15,86 1586 22,043 0,523 15,368 0,405 1,235 -0,312 18,617 -14,922 1,023
1 15,87 1587 22,312 1,023 15,168 0,470 0,871 -0,350 6,490 -36,383 -3,849
1 15,88 1588 22,541 1,354 14,983 0,400 0,579 -0,322 -6,953 -29,198 2,797
1 15,89 1589 22,695 1,513 14,826 0,269 0,277 -0,274 -13,097 -30,216 4,808
1 15,90 1590 22,770 1,550 14,641 0,131 0,063 -0,323 -13,827 -21,374 -4,827
1 15,91 1591 22,764 1,407 14,220 -0,010 -0,249 -0,734 -14,098 -31,291 -41,179
1 15,92 1592 23,191 1,386 14,208 0,745 -0,037 -0,022 75,527 21,248 71,288
1 15,93 1593 23,594 1,182 14,105 0,703 -0,355 -0,179 -4,249 -31,762 -15,791
1 15,94 1594 24,232 0,826 13,948 1,114 -0,621 -0,274 41,088 -26,686 -9,426
1 15,95 1595 24,968 0,509 13,859 1,284 -0,554 -0,155 17,071 6,762 11,895
1 15,96 1596 22,598 1,186 13,449 -4,136 1,182 -0,716 -541,994 173,604 -56,121
1 15,97 1597 23,226 1,050 13,417 1,095 -0,238 -0,056 523,101 -142,032 65,952
1 15,98 1598 24,072 0,740 13,279 1,476 -0,541 -0,241 38,099 -30,244 -18,439
1 15,99 1599 24,986 0,447 13,173 1,597 -0,512 -0,185 12,025 2,824 5,623
